Time (s),Linear Acceleration x (m/s^2),Linear Acceleration y (m/s^2),Linear Acceleration z (m/s^2),Absolute acceleration (m/s^2)
0,-0.120113084,-0.390722425,-0.172671202,0.44374149
0.01001,0.058317132,-0.337997131,-0.124572591,0.364912701
0.02002,0.204478831,-0.128408364,-0.247003931,0.345414594
0.030029,-0.112746798,0.128998714,-0.13278559,0.216759132
0.040039,0.125427655,0.262630907,-0.257918928,0.388882069
0.050049,-0.028591002,0.226987523,-0.198243999,0.302723412
0.060059,0.0309431,0.138984296,-0.193603064,0.240325314
0.070068,0.042283245,-0.077745164,-0.194521077,0.213706885
0.080078,-0.03754404,-0.270383657,-0.139587071,0.306596522
0.090118,0.006434203,-0.170169178,-0.203603557,0.265430512
0.100128,-0.122134978,-0.129457866,-0.179910055,0.253069002
0.110138,-0.072838948,-0.077885132,-0.174531786,0.20453105
0.120148,0.015335639,0.056636935,-0.20855381,0.216650908
0.130157,0.001000459,0.123555175,-0.185499408,0.222883182
0.140167,0.0164281,0.098121322,-0.223280607,0.24444203
0.150177,-0.019498747,-0.010450802,-0.183182157,0.184513205
0.160187,-0.01807241,-0.153141794,-0.185192429,0.240988085
0.170197,-0.049479066,-0.22034801,-0.161845667,0.277840679
0.180206,0.004022665,-0.228792266,-0.1656715,0.282505095
0.190216,-0.024959717,-0.130255719,-0.182882779,0.225910714
0.200256,-0.014469977,0.013791901,-0.171353239,0.172515302
0.210266,0.005743683,0.122100534,-0.210930119,0.243788936
0.220276,-0.005094314,0.12307278,-0.178883868,0.21719185
0.230286,0.014189511,0.020118953,-0.197116072,0.198647578
0.240295,-0.020819834,-0.092974822,-0.159488069,0.185780051
0.250305,-0.004358131,-0.158750736,-0.172551334,0.234509599
0.260315,-0.010806696,-0.164003216,-0.173399765,0.238916969
0.270325,-0.024119911,-0.080528146,-0.189310623,0.207135377
0.280334,-0.004994198,0.016400709,-0.191376445,0.192142835
0.290344,0.009448297,0.084889511,-0.188978502,0.207384603
0.300354,-0.004133543,0.068288608,-0.179082089,0.19170502
0.31038475,-0.009342297,-0.02598393,-0.176125152,0.178276505
0.32039475,-0.00417842,-0.100513125,-0.170104859,0.197625936
0.33040475,-0.010398816,-0.123827948,-0.164085735,0.205829115
0.34041475,-0.006534428,-0.087038436,-0.167202301,0.188613355
0.35042375,0.005664655,-0.029863777,-0.179871463,0.1824217
0.36043375,0.009458602,0.045455231,-0.179615355,0.185519053
0.37044375,0.0027407,0.050228021,-0.180588917,0.187463923
0.38045375,0.002617835,-0.006386329,-0.184598937,0.184727924
0.39046275,-0.004243507,-0.061342409,-0.16857932,0.179443266
0.40047275,0.000968463,-0.092678368,-0.162820398,0.187351807
0.41048275,-0.009373781,-0.075041338,-0.175118262,0.190749773
0.42052275,-0.014821541,-0.021637037,-0.176961889,0.1788948
0.43053275,-0.008665921,0.011655913,-0.184950355,0.185519789
0.44054275,-0.056788761,0.034756873,-0.164329564,0.177305412
0.45055275,0.030710362,0.002176553,-0.155019627,0.158047298
0.46056175,-0.015229292,-0.133455388,-0.213003541,0.251818944
0.47057175,0.116357545,-0.186022222,-0.180000687,0.283802031
0.48058175,-0.063559947,-0.143375117,-0.114458662,0.194157349
0.49059175,0.068343919,0.104827201,-0.210072917,0.244520477
0.50060075,0.044807067,0.092339741,-0.154550681,0.185526855
0.51061075,0.018623893,0.020003179,-0.167794039,0.170005342
0.52062075,0.185893035,0.0552366,-0.197179806,0.276563155
0.53066075,0.160531615,0.051215762,-0.161938637,0.233704035
0.54067075,-0.512415116,-0.113178487,-0.294509634,0.601759541
0.55068075,-0.352856222,-0.125917523,-0.093003473,0.38602122
0.56068975,0.338814353,-0.018175047,-0.303784488,0.455423444
0.57069975,-0.085605631,-0.066509958,-0.095094438,0.144204198
0.58070975,-0.109231415,-0.088270737,-0.146763359,0.203132244
0.59071975,-0.014141418,-0.162735613,-0.210361184,0.266335667
0.60072975,0.160567283,-0.005210454,-0.146885566,0.217679513
0.61073875,0.248986356,0.023463342,-0.130178901,0.28194198
0.62074875,0.178638961,0.018076448,-0.150013826,0.23397176
0.63078875,-0.178559129,-0.015236601,-0.216859195,0.281324416
0.64079875,-0.398559412,-0.031372212,-0.215585672,0.454214709
0.65080875,0.308316519,0.061050194,-0.168291637,0.356522477
0.66081875,-0.181095158,-0.14184395,-0.139160809,0.268851061
0.67082775,0.01568353,-0.1020057,-0.155206153,0.186386926
0.68083775,0.165556675,0.097528707,-0.19245701,0.271956912
0.69084775,-0.252199383,0.099155402,-0.182195147,0.326544628
0.70085775,0.118672713,0.136133413,-0.200503364,0.269846471
0.71086675,-0.051723812,0.004395937,-0.179897776,0.187237514
0.72087675,-0.110202163,-0.040517477,-0.160469817,0.198838489
0.73088675,-0.031783783,-0.049128087,-0.169306129,0.179132195
0.74092675,-0.012956005,-0.118295166,-0.144293495,0.187035336
0.75093675,0.143145303,-0.148610129,-0.146205534,0.252886548
0.76094675,0.191553725,-0.099216505,-0.134836208,0.254396438
0.77095675,0.161013699,-0.082388438,-0.136133121,0.226374673
0.78096575,0.054539411,-0.023615954,-0.154591026,0.165621997
0.79097575,-0.464954984,0.056650164,-0.237338483,0.52509231
0.80098575,0.092150876,0.250275083,-0.158126838,0.310054024
0.81099575,0.052278128,0.074205917,-0.222946147,0.240716649
0.82100475,-0.179610221,-0.019730625,-0.143719883,0.230877746
0.83101475,0.124806936,-0.096554049,-0.154089335,0.220551533
0.84102475,0.016200899,-0.151930982,-0.128351646,0.199548584
0.85106475,-0.010144718,-0.168556224,-0.135841345,0.216718681
0.86107475,0.092518739,-0.064643673,-0.13812936,0.178376685
0.87108475,-0.085898284,0.034762793,-0.174482085,0.197562559
0.88109375,0.001982681,0.157032824,-0.207335835,0.260098803
0.89110375,-0.00880905,0.143992363,-0.200305143,0.246847221
0.90111375,-0.046447522,0.104379231,-0.176028088,0.209853006
0.91112375,0.000575384,0.114685022,-0.179284987,0.212828786
0.92113375,-0.028778296,0.075689575,-0.161071495,0.180280694
0.93114275,-0.005483226,-0.054291032,-0.151557491,0.161081516
0.94115275,-0.008537026,-0.118221126,-0.153756629,0.194139682
0.95119275,-0.033055388,-0.089360292,-0.155651127,0.182497106
0.96120275,-0.005393746,-0.08431663,-0.159785693,0.180748041
0.97121275,0.012591814,-0.159286267,-0.156906524,0.223942685
0.98122275,-0.002965087,-0.211023016,-0.147321183,0.257377225
0.99123175,-0.038230064,-0.200969387,-0.150759346,0.254123223
1.00124175,-0.038234998,-0.129145406,-0.143344492,0.196692893
1.01125175,-0.069240371,-0.085487608,-0.142241122,0.179819067
1.02126175,-0.037832509,-0.04079522,-0.146473922,0.156684901
1.03127175,0.062933619,0.017805137,-0.155445889,0.168644857
1.04128075,0.065061621,0.013270256,-0.17228587,0.184638932
1.05129075,-0.02720841,-0.057086366,-0.177631395,0.188552548
1.06133075,-3.06979E-06,-0.039163042,-0.168197497,0.172696676
1.07134075,0.002819893,0.040670747,-0.168468223,0.173330908
1.08135075,0.001925726,0.08461725,-0.165088533,0.185520918
1.09136075,0.032049813,0.020002228,-0.16929385,0.173458028
1.10136975,0.001421166,0.013323831,-0.152081401,0.15267055
1.11137975,0.022465953,0.064203597,-0.169848751,0.18296289
1.12138975,0.006555935,0.124686465,-0.172365392,0.212836847
1.13139975,-0.009576661,0.12760481,-0.174331226,0.216254657
1.14140875,0.018653714,0.108898179,-0.174944599,0.206911544
1.15141875,0.020206643,0.040196538,-0.166632197,0.172598839
1.16142875,0.019437881,-0.000361796,-0.151737,0.152977382
1.17146875,0.022710659,0.01584018,-0.146358147,0.14895433
1.18147875,0.070428927,0.00655239,-0.147293116,0.163396541
1.19148875,0.02889091,-0.067965403,-0.151746356,0.168762962
1.20149875,-0.016096636,-0.067458596,-0.163118606,0.177249664
1.21150775,-0.081055437,-0.019674419,-0.180901743,0.199204687
1.22151775,-0.109223796,-0.019331187,-0.17757877,0.209374669
1.23152775,0.071047252,-0.04048349,-0.143377236,0.165056526
1.24153775,-0.081586492,-0.117897044,-0.132315474,0.195098573
1.25154675,-0.074496104,-0.078074216,-0.145661743,0.181280435
1.26155675,-0.007604066,-0.007679587,-0.144494054,0.144897652
1.27159675,0.011195646,-0.006158141,-0.153993441,0.154522636
1.28160675,0.024957798,-0.013644405,-0.16631177,0.168726602
1.29161675,0.007480124,-0.042657923,-0.165989588,0.171546478
1.30162675,0.030430792,-0.057613931,-0.163103988,0.175636867
1.311674292,-0.018289031,-0.040141282,-0.158289975,0.164321415
1.321684292,-0.026385689,-0.009120706,-0.157430434,0.159886627
1.331694292,0.007764116,0.039186724,-0.155650542,0.160695277
1.341704292,0.012933657,0.08647418,-0.162047396,0.184131534
1.351714292,0.013385364,0.128372038,-0.166760252,0.210873255
1.361723292,0.04945332,0.229668837,-0.184360371,0.298633809
1.371733292,-0.020547573,0.335770585,-0.183743489,0.383308959
1.381773292,0.020317421,0.301230789,-0.17089014,0.346923949
1.391783292,-0.020933434,0.162098924,-0.137097327,0.213330605
1.401793292,0.059130224,0.33043215,-0.176458443,0.379235245
1.411803292,0.099085208,0.740495045,-0.219985701,0.778809668
1.421812292,-0.108687707,0.774258476,-0.262044139,0.824594649
1.431822292,0.073138837,0.738760541,-0.309320047,0.80423586
1.441832292,-0.125799674,0.709573945,-0.23621114,0.758364322
1.451842292,-0.221287328,0.973861222,-0.311695186,1.046196755
1.461851292,-0.139345855,1.086185212,-0.381266527,1.159560152
1.471861292,0.456337394,1.003120251,-0.116062553,1.108135628
1.481871292,-0.027835359,0.823221452,-0.199367834,0.847476194
1.491911292,0.726603084,1.505860198,-0.155144758,1.679177439
1.501921292,0.324885664,1.523456663,-0.517422452,1.641400893
1.511931292,-1.118250392,1.878240565,-0.64848896,2.280089799
1.521941292,-0.438240919,2.152280852,-0.21986174,2.207420928
1.531950292,0.869588045,2.43294618,-0.289148907,2.599811065
1.541960292,0.530928607,2.760429871,-0.383536416,2.837068636
1.551970292,0.063917988,3.139128886,-0.600794976,3.196743699
1.561980292,0.031808305,3.338392932,-0.27708844,3.350023454
1.571989292,0.360811651,3.566420894,-0.717507155,3.655729689
1.581999292,0.000789794,3.760267203,-0.784537881,3.841238049
1.592039292,-0.335627913,3.593750196,-0.450458384,3.63738908
1.602049292,0.53893191,3.725648178,-0.517000283,3.799761998
1.612059292,-0.464477961,3.861560274,-1.035984526,4.025003287
1.622069292,-0.045059055,3.80254725,0.068831084,3.80343708
1.632079292,0.206333038,4.035740642,-0.45751188,4.066828368
1.642088292,-0.09717199,4.319162786,-0.478182372,4.346638695
1.652098292,0.366406377,3.969216869,-1.269587224,4.183394305
1.662108292,-0.432222892,3.92560278,-0.634736894,4.000008093
1.672118292,0.167208185,4.737403889,-0.640092359,4.783374584
1.682127292,0.28213667,4.679415005,0.10313319,4.689047061
1.692137292,-0.037170521,4.984261347,-1.32060535,5.156378701
1.702177292,-1.952641561,3.948587893,-0.610651628,4.447139622
1.712187292,0.9321849,3.858141114,0.436895183,3.993131471
1.722197292,0.908336812,4.806923482,-1.48542491,5.11254108
1.732207292,1.992471624,5.260306644,-0.587165117,5.655575305
1.742216292,-0.94436063,4.740994372,-0.933112707,4.923367136
1.752226292,-0.003705335,4.004833722,0.174367479,4.008629552
1.762236292,0.47925329,3.827570117,-0.767778007,3.933123413
1.772246292,-1.230513643,2.998229408,-0.642054684,3.303903392
1.782256292,-1.272928469,2.259110651,0.847133494,2.727922832
1.792265292,-0.393604993,1.319390006,1.370310776,1.942541248
1.802275292,1.429933079,-0.24727378,4.550662825,4.776440628
1.812315292,0.232491379,-1.172469942,-4.723712341,4.872596463
1.822325292,-0.524761292,-1.071960544,-4.79950512,4.945677225
1.832335292,-0.130007669,-0.641570242,-1.692071359,1.814282187
1.842345292,-1.561148107,0.148463729,11.41091385,11.51816738
1.852354292,-0.434417644,-1.033643009,-6.356597013,6.454724018
1.862364292,0.236249293,-0.733523702,-4.96404226,5.02350339
1.872374292,0.708665873,-0.835212045,1.632823861,1.966189269
1.882384292,0.079413101,-0.267359989,2.472591618,2.488271913
1.892393292,-0.682342146,-0.5331883,1.948595141,2.132346968
1.902403292,-0.61758606,-0.324691792,-0.483662968,0.848980075
1.912444292,0.385497097,-0.891980469,-0.14886017,0.983054688
1.922453292,0.147732443,-1.203715269,-2.928435287,3.169619623
1.932463292,0.796039573,-0.891114496,-1.580718153,1.981523133
1.942473292,-0.412225816,0.005809501,1.931641724,1.975146482
1.952483292,-1.045033677,-0.252780249,3.319355568,3.489142391
1.962492292,-0.617801165,-0.453617781,-0.3785733,0.854848006
1.972502292,-0.28343424,-0.936334669,-2.804211191,2.969959256
1.982512292,0.192408862,-0.663022799,-0.46563951,0.832730783
1.992522292,0.456699044,-0.476183648,0.56825756,0.870770658
2.002531292,0.260827772,-0.531116046,-0.001538402,0.591707485
2.012541292,-0.434983326,-0.383566237,-0.813747647,0.999259118
2.022581292,-0.501247811,-0.38683008,1.395643253,1.532549173
2.032591292,-0.28602728,-0.89115623,0.277267365,0.976139449
2.042601292,-0.47261776,-1.049546997,-1.434420233,1.839151394
2.052611292,0.203027881,-0.062599414,-0.287069637,0.357138605
2.062621292,-0.045803725,-1.095690372,1.163902894,1.59915769
2.072630292,0.95735921,-0.970438554,-0.544055935,1.467748107
2.082640292,0.872493892,-1.330195806,0.315252047,1.621742991
2.092650292,0.883786181,-0.160750483,-1.910081286,2.110765086
2.102660292,-0.060281577,-1.010374306,-0.344007484,1.069032861
2.112669292,0.967983309,-0.367551006,-2.720303646,2.910693621
2.122679292,0.703211736,-0.198366352,2.810841933,2.904253489
2.132719292,-0.522347306,-0.430224387,2.633383616,2.718942626
2.142729292,0.076865441,-0.897709278,-2.416523252,2.579025954
2.152739292,-0.566248311,-0.53097162,-1.122527411,1.364784158
2.162749292,-0.285593526,-0.472835532,1.551427111,1.646834291
2.172758292,-0.189364016,-0.745721578,1.155971146,1.388606745
2.182768292,-0.099624276,-0.634133096,-2.045789899,2.144132946
2.192778292,0.092006962,-2.249441111,5.072149091,5.549337528
2.202788292,0.64280649,-9.05995309,6.269518524,11.03643116
2.212798292,-0.137352868,-3.343575612,-7.046116471,7.800392362
2.222807292,-1.291978844,-8.322784672,0.225976759,8.425498177
2.232848292,-0.72760515,-5.05662298,-5.066473199,7.194997977
2.242857292,-0.023392901,-2.660926341,1.82831733,3.228594196
2.252867292,0.419648089,-2.018856746,1.790447254,2.730858555
2.262877292,0.948347189,-4.914012898,6.693307757,8.357466954
2.272887292,0.485814524,-0.981882067,-10.9060559,10.96093807
2.282896292,0.381929528,-0.941522465,-5.087609714,5.188073566
2.292906292,-0.806145024,0.660373645,13.09775254,13.13914322
2.302916292,-1.684162707,-2.379132208,-0.664927238,2.989782988
2.3129245,-2.233947305,-3.77886398,0.617851889,4.433066038
2.3229335,-0.020512398,-0.088008197,-6.368006101,6.368647258
2.3329435,0.19729527,-0.828074568,-1.389640501,1.62964218
2.3429845,0.872809787,-1.435774886,1.271151938,2.106910938
2.3529935,0.041637922,-0.731035419,2.675380073,2.773770906
2.3630035,-0.6524791,-0.389530105,0.427753646,0.872029736
2.3730135,-2.273777076,-1.162379255,0.396241831,2.584220446
2.3830235,-0.569627343,-1.69372042,-1.613813978,2.407812228
2.3930325,0.252363836,-2.967572456,0.003089669,2.978285301
2.4030425,0.803040226,-0.639752489,1.029549081,1.454004182
2.4130525,0.177959168,-0.431847281,0.214522648,0.513985901
2.4230625,-0.076646911,-1.182339384,-0.66455477,1.358467596
2.4330715,-0.431890551,-1.812957864,-0.173582783,1.871757636
2.4431125,-0.201151747,-1.676954698,0.358536061,1.726611477
2.4531215,1.057099334,-2.206598708,5.074215497,5.633311617
2.4631315,0.299451683,-1.556344619,-6.988141912,7.165612833
2.4731415,-0.198260006,-2.104857302,-2.046313224,2.942299968
2.4831515,-0.249958182,-0.996577509,7.849759544,7.916714642
2.4931615,-0.832762646,-0.388902845,-3.135679321,3.267602156
2.5031705,-0.099354262,-2.710339406,-1.385220591,3.04543052
2.5131805,0.254475174,-1.409674962,-1.261612791,1.908823708
2.5231905,0.306438758,-1.412339392,2.267451997,2.688855859
2.5332005,-0.592021704,-0.322396614,0.656979702,0.941303141
2.5432095,-0.925073078,-2.091325821,0.677683523,2.385090952
2.5532505,0.24175008,-2.290463275,-2.229629282,3.205606316
2.5632595,0.394283526,-1.210932488,1.544974709,2.002189761
2.5732695,1.173917639,-2.754132712,0.13814047,2.997067302
2.5832795,-0.626045446,-0.598095025,-2.682055255,2.818345427
2.5932895,-1.443732216,-1.613675692,2.774651762,3.51951763
2.6032985,0.206824898,-1.409480542,-1.051922867,1.770862404
2.6133085,0.65171867,-1.595826043,-0.474129667,1.787791074
2.6233185,0.137598488,-0.958917639,0.930340542,1.343126914
2.6333285,0.051604054,-1.57986022,0.08393912,1.582929901
2.6433385,-1.453433478,-1.22445929,-0.310960191,1.925737694
2.6533475,-0.110434334,-2.337774998,0.54430795,2.402843904
2.6633885,0.104020797,-1.700732254,-0.538001727,1.786828583
2.6733975,0.350425315,-0.842858302,1.082483924,1.415972975
2.6834075,0.205414732,-1.628121823,-0.756012824,1.806801393
2.6934175,0.205684289,-1.26947715,-0.316029727,1.324293415
2.7034275,0.053341444,-1.399510455,0.864650583,1.645933004
2.7134365,-1.088158354,-1.625737182,-0.371786436,1.991314928
2.7234465,-0.364172813,-1.395211582,-0.00856851,1.44198149
2.7334565,0.211697602,-1.375623117,0.241634433,1.412636554
2.7434665,0.228910453,-1.423380397,-0.157459086,1.450243123
2.7534755,0.072998687,-0.815443339,-0.040044656,0.819683001
2.7635165,-0.105598887,-0.02290157,-0.024809736,0.110865369
2.7735265,-0.06698552,-0.012320814,-0.205754748,0.216734581
2.7835355,-0.071917463,0.021452557,-0.154230253,0.171520566
2.7935455,-0.053987452,0.039162092,-0.10166203,0.121587346
2.8035555,-0.030701993,0.036152677,-0.187309706,0.193221517
2.8135655,-0.055083823,0.048869786,-0.154324978,0.170993223
2.8235745,-0.12340174,0.07972452,-0.144519197,0.206081991
2.8335845,-0.123831876,-0.043522946,-0.143753212,0.194662699
2.8435945,-0.089758086,-0.101739067,-0.132483289,0.189629042
2.8536045,-0.104477209,0.0191068,-0.154865845,0.187787079
2.8636135,-0.111184221,0.011523254,-0.141022562,0.179950214
2.8736545,-0.109327036,0.001417731,-0.160854564,0.194495762
2.8836635,-0.10688469,-0.018343081,-0.145082869,0.181134879
2.8936735,-0.105035143,-0.037830097,-0.13753119,0.177139283
2.9036835,-0.091278709,0.024093964,-0.15540145,0.181829405
2.9136935,-0.077051794,0.013495228,-0.141043028,0.161283092
2.9237035,-0.07259702,-0.007699467,-0.145432532,0.162727473
2.9337125,-0.060135635,-0.017248409,-0.140315049,0.153629799
2.9437225,-0.065787937,0.018489188,-0.142111314,0.157688073
2.9537325,-0.059202912,0.013173996,-0.14223586,0.154627225
2.9637425,-0.065736335,-0.005345598,-0.144172457,0.158541915
2.9737515,-0.068491799,0.013632491,-0.147168571,0.16289739
2.9837925,-0.064472076,-0.00276661,-0.153718037,0.166713939
2.9938015,-0.070819905,-0.008145683,-0.153842583,0.169556337
3.0038115,-0.073427361,-0.005125085,-0.144409854,0.16208655
3.0138215,-0.074810867,-0.016910805,-0.141411987,0.160872593
3.0238315,-0.080705902,-0.007621407,-0.148553776,0.169232836
3.0338405,-0.071911616,0.010842711,-0.152111222,0.168602102
3.0438505,-0.070588136,-0.008960566,-0.144765365,0.161307122
3.0538605,-0.069788072,-0.001540449,-0.153264293,0.168412266
3.0638705,-0.071158367,0.000562429,-0.14158331,0.158460289
3.0738805,-0.069657204,-0.006678763,-0.14650959,0.162363148
3.0838895,-0.065774781,0.001384694,-0.143336306,0.157713461
3.0939305,-0.068070781,-0.006412934,-0.130006993,0.14688967
3.1039395,-0.06950101,-0.00711862,-0.141829478,0.15810334
3.1139495,-0.068984646,-0.007460828,-0.143612294,0.159496196
3.1239595,-0.069291077,-0.003455485,-0.14599328,0.161639202
3.1339695,-0.0685597,-0.00485984,-0.149722635,0.164745008
3.1439785,-0.073479565,-0.004528669,-0.153742595,0.170459793
3.1539885,-0.07075257,-0.005194959,-0.144899266,0.16133416
3.1639985,-0.062490637,-0.008505214,-0.145485157,0.158566546
3.1740085,-0.065901099,-0.001251743,-0.150557617,0.164353636
3.1840175,-0.064275646,-0.011865316,-0.151882596,0.165349531
3.1940585,-0.060636942,-0.007291916,-0.146627703,0.158838579
3.2040685,-0.061548632,-0.009454436,-0.138080828,0.151472557
3.2140775,-0.057044029,-0.002364614,-0.138960834,0.15023224
3.2240875,-0.07281196,-0.009927183,-0.149719711,0.16678166
3.2340975,-0.06142511,-0.012851157,-0.147162139,0.159984035
3.2441075,-0.064937587,-0.001138161,-0.143550898,0.157559659
3.2541165,-0.060200082,-0.003734982,-0.144137959,0.156249004
3.2641265,-0.064956116,-0.00813545,-0.146072803,0.160071066
3.2741365,-0.066803014,-0.008081217,-0.146672142,0.161371206
3.2841465,-0.059011124,-0.005105862,-0.151770329,0.162919046
3.2941555,-0.062454732,-0.00821965,-0.145928961,0.158944701
3.3041965,-0.060457231,-0.010936851,-0.141278086,0.154059044
3.314216125,-0.067208628,-0.003211656,-0.146653431,0.161352233
3.324226125,-0.059706412,-0.007127829,-0.14320065,0.155312871
3.334236125,-0.066675617,-0.004314368,-0.141377488,0.15637086
3.344246125,-0.05568457,-0.01444328,-0.142722348,0.15387998
3.354256125,-0.059456005,-0.004531811,-0.13792997,0.150267197
3.364265125,-0.063915567,0.00048086,-0.148245043,0.161437368
3.374275125,-0.050445684,-0.005038107,-0.1528813,0.161067817
3.384285125,-0.061473258,-0.009871123,-0.14210839,0.155148945
3.394295125,-0.064535884,-0.00825868,-0.140017426,0.154395485
3.404304125,-0.062022403,-0.006514821,-0.152582508,0.1648352
3.414345125,-0.058794503,-0.009786996,-0.135496944,0.148027026
3.424354125,-0.058839636,-0.007490503,-0.145055972,0.156714534
3.434364125,-0.059557765,-0.002181158,-0.148485364,0.159999338
3.444374125,-0.057619304,-0.007939569,-0.145925453,0.15708997
3.454384125,-0.062122208,-0.008958665,-0.151742263,0.16421066
3.464393125,-0.057798155,-0.001365325,-0.14394734,0.155123588
3.474403125,-0.057435226,-0.002718736,-0.14560561,0.156547726
3.484413125,-0.05738441,-0.005072313,-0.142762109,0.153947129
3.494423125,-0.053786636,-0.004788358,-0.144998669,0.154727324
3.504433125,-0.054021713,-0.007399798,-0.149625571,0.159251103
3.514473125,-0.057768828,-0.00774069,-0.140183487,0.151817541
3.524483125,-0.060870867,-0.001097522,-0.137620068,0.150485049
3.534492125,-0.056090805,-0.002783055,-0.14599445,0.156423474
3.544502125,-0.054471875,-0.001617194,-0.142990735,0.153023367
3.554512125,-0.059666907,-0.005904153,-0.15017404,0.161701085
3.564522125,-0.061290752,-0.017389108,-0.140591038,0.154352769
3.574531125,-0.055914164,-0.006065098,-0.137883777,0.148913113
3.584541125,-0.060304126,-0.000710144,-0.141320186,0.153650535
3.594551125,-0.050370821,-0.010751202,-0.149080026,0.157726542
3.604561125,-0.050335518,-0.008363857,-0.148457882,0.156982041
3.614570125,-0.056317074,-0.013230641,-0.145747113,0.156808429
3.624611125,-0.054375232,-0.016424609,-0.149644282,0.160062003
3.634621125,-0.051513732,-0.015555129,-0.147986596,0.157466375
3.644630125,-0.052564203,-0.010551081,-0.139308743,0.149269042
3.654640125,-0.053388697,-0.008072374,-0.13824455,0.148415201
3.664650125,-0.044105657,-0.004339365,-0.145403296,0.152007426
3.674660125,-0.050695579,-0.004159198,-0.145981001,0.154589111
3.684669125,-0.05304203,-0.007838119,-0.159904391,0.168654402
3.694679125,-0.05348344,0.008307651,-0.147324691,0.156952414
3.704689125,-0.057665606,-0.005229677,-0.13471751,0.146633827
3.714699125,-0.055478327,-0.003187463,-0.150276951,0.160222241
3.724708125,-0.05560777,-0.003953668,-0.146079234,0.156355359
3.734749125,-0.05885292,-0.01300735,-0.147712362,0.1595362
3.744758125,-0.059869714,-0.007185132,-0.145015626,0.157052668
3.754768125,-0.056638872,-0.008776451,-0.140957074,0.152164005
3.764778125,-0.048922922,-0.006553267,-0.145140172,0.153303839
3.774788125,-0.0506357,-0.006027602,-0.13973676,0.148750355
3.784798125,-0.04230022,-0.010799296,-0.143475469,0.149970476
3.794807125,-0.044354785,-0.013205863,-0.144649006,0.151871909
3.804817125,-0.048116336,-0.004946233,-0.142535822,0.150519459
3.814827125,-0.045507363,-0.0032406,-0.154060099,0.160673382
3.824837125,-0.049922522,-0.013189711,-0.150321974,0.158943143
3.834877125,-0.049879344,-0.009771794,-0.140285228,0.14920919
3.844887125,-0.049007597,-0.008755767,-0.142373854,0.150826796
3.854896125,-0.051223911,-0.008057317,-0.151512467,0.160140055
3.864906125,-0.054864205,-0.009228587,-0.149862968,0.159856676
3.874916125,-0.053408851,-0.005022978,-0.144619185,0.154247996
3.884926125,-0.0552622,-0.00853445,-0.149263628,0.159393783
3.894935125,-0.048664823,0.000322328,-0.135940163,0.1443887
3.904945125,-0.04549777,-0.015445932,-0.146425974,0.154107722
3.914955125,-0.04411801,-0.017453939,-0.144446692,0.152039092
3.924965125,-0.043468,-0.006995243,-0.142322398,0.148976728
3.934975125,-0.048233463,-0.012187352,-0.144401668,0.152731268
3.945015125,-0.045867862,-0.011145305,-0.139607536,0.147371445
3.955025125,-0.046500695,-0.010493486,-0.141240079,0.149067729
3.965034125,-0.044306802,-0.005945887,-0.147666754,0.154285179
3.975044125,-0.049928698,-0.010181464,-0.146911293,0.155497477
3.985054125,-0.043735638,-0.003456801,-0.143615803,0.150167421
3.995064125,-0.045033994,-0.013495812,-0.148848476,0.156096337
4.005073125,-0.048111384,-0.009839914,-0.144360153,0.152484042
4.015083125,-0.048956873,-0.013324708,-0.149735498,0.158098206
4.025093125,-0.050466715,-0.014372895,-0.14597223,0.155117251
4.035103125,-0.04732232,-0.00187374,-0.142366837,0.150037426
4.045112125,-0.047523446,-0.009471028,-0.141003851,0.14909817
4.055153125,-0.040437717,-0.008231637,-0.14354856,0.149362505
4.065162125,-0.050090209,-0.001452156,-0.139356691,0.148092623
4.075172125,-0.048152406,-0.004575519,-0.156865593,0.164153598
4.085182125,-0.048282415,-0.005825362,-0.148173122,0.155949994
4.095192125,-0.051481481,-0.012273159,-0.145621397,0.15494052
4.105202125,-0.045194518,-0.010220494,-0.144265428,0.151523981
4.115211125,-0.045037576,-0.007467918,-0.138117081,0.145466426
4.125221125,-0.043214359,-0.002835607,-0.140510346,0.147032918
4.135231125,-0.040529665,-0.005079184,-0.143522247,0.149221604
4.145241125,-0.038679551,-0.004757075,-0.143374313,0.148576347
4.155250125,-0.046269767,-0.009326601,-0.14500627,0.152494902
4.165291125,-0.039100404,-0.00847627,-0.140207461,0.145804049
4.175300125,-0.04666946,-0.01249835,-0.144099952,0.151983695
4.185310125,-0.042900912,-0.003649174,-0.145744189,0.151970962
4.195320125,-0.043054438,-0.002285896,-0.145293369,0.151555511
4.205330125,-0.046254619,-0.012095185,-0.138392485,0.146418111
4.215339125,-0.051071464,-0.013568318,-0.130903956,0.141167416
4.225349125,-0.046617201,-0.006144766,-0.144063115,0.151542412
4.235359125,-0.051567143,-0.011148813,-0.144950137,0.154253067
4.245369125,-0.041610194,-0.012468603,-0.138493057,0.145145448
4.255379125,-0.037395648,-0.008477951,-0.146412526,0.151350381
4.265419125,-0.040994043,-0.007904778,-0.154189323,0.159741492
4.275429125,-0.04102708,-0.014363758,-0.150142465,0.156308344
4.285438125,-0.051498603,-0.001311311,-0.14700251,0.155767659
4.295448125,-0.034925182,-0.013265359,-0.134877139,0.139955638
4.305458125,-0.044496799,-0.009762438,-0.146388552,0.153313008
4.315475875,-0.04119029,-0.000556655,-0.143246258,0.149051805
4.325484875,-0.040870283,-0.004766358,-0.149975819,0.155517988
4.335494875,-0.036730564,-0.013015975,-0.14636107,0.151459938
4.345504875,-0.032142419,-0.012178654,-0.144854243,0.14887648
4.355514875,-0.039466842,-0.004252461,-0.151738755,0.156845034
4.365523875,-0.038486976,-0.011561846,-0.147227628,0.152613558
4.375564875,-0.036610148,-0.010566357,-0.144375356,0.149319102
4.385574875,-0.043486784,-0.016068002,-0.137340571,0.144954177
4.395583875,-0.040352695,-0.008106141,-0.134646174,0.140796455
4.405593875,-0.047035825,-0.009144168,-0.137322444,0.145442217
4.415603875,-0.040356039,-0.006640683,-0.137913598,0.143850162
4.425613875,-0.033572227,-0.012694378,-0.137024236,0.141647037
4.435622875,-0.042111537,-0.00456726,-0.146157002,0.152171321
4.445632875,-0.038762545,-0.002577014,-0.142714162,0.147907092
4.455642875,-0.040694867,-0.008170095,-0.141374565,0.147341746
4.465652875,-0.041080472,-0.00680879,-0.136281055,0.142500845
4.475661875,-0.041995781,-0.00799731,-0.145560002,0.151707998
4.485702875,-0.041047216,-0.015178641,-0.151991939,0.158167047
4.495711875,-0.04521206,-0.017993198,-0.140447196,0.148638153
4.505721875,-0.047037305,-0.008992871,-0.143290113,0.151080893
4.515731875,-0.039857838,-0.011181411,-0.145670514,0.151438337
4.525741875,-0.043187919,-0.005643586,-0.151954517,0.158073469
4.535751875,-0.037673081,-0.005539579,-0.135052555,0.140317998
4.545760875,-0.032481868,-0.003591141,-0.134900528,0.138802451
4.555770875,-0.043300295,-0.009896339,-0.14193122,0.148718944
4.565780875,-0.036098626,-0.009068447,-0.142385548,0.147169942
4.575790875,-0.032810317,-0.016578537,-0.13669036,0.141547234
4.585799875,-0.03623324,-0.008588975,-0.141034257,0.145867336
4.595840875,-0.041268935,-0.011909828,-0.143869572,0.150144673
4.605849875,-0.032769331,-0.004802318,-0.136840049,0.140790946
4.615859875,-0.035560116,-0.005398149,-0.140431409,0.14496428
4.625869875,-0.041248196,-0.003967482,-0.141317847,0.147268083
4.635879875,-0.03508545,-0.004924306,-0.141912509,0.146268239
4.645888875,-0.034707848,-0.003347166,-0.150897925,0.154874213
4.655898875,-0.02990553,-0.013606325,-0.148806376,0.152390322
4.665908875,-0.036762358,-0.003230514,-0.146412526,0.150991837
4.675918875,-0.032573084,-0.007076227,-0.137432957,0.141417454
4.685928875,-0.031766187,-0.011574856,-0.142356312,0.146316054
4.695968875,-0.033545348,-0.008028666,-0.145361781,0.149398117
4.705978875,-0.029953696,-0.014113351,-0.148044484,0.151702273
4.715987875,-0.041949296,-0.009273392,-0.140840714,0.147247567
4.725997875,-0.035490278,-0.014630172,-0.13887605,0.144083861
4.736007875,-0.037707835,-0.021434285,-0.143058563,0.149489337
4.746017875,-0.036699172,-0.007014612,-0.14797958,0.152623687
4.756026875,-0.036736905,-0.013312721,-0.150819572,0.15579914
4.766036875,-0.03305685,-0.004303843,-0.144230345,0.148032668
4.776046875,-0.033700683,-0.007563008,-0.164402654,0.167991571
4.786056875,-0.042232374,-0.001982572,-0.13762533,0.143973037
4.796065875,-0.036234428,-0.015143265,-0.135219786,0.140807112
4.806106875,-0.036362573,0.009580517,-0.165589639,0.169805629
4.816116875,-0.024615097,-0.014703993,-0.124587209,0.127843979
4.826125875,-0.036287199,-0.003716125,-0.139364292,0.144058933
4.836135875,-0.035610201,0.002039874,-0.167930279,0.171676516
4.846145875,-0.051312022,-0.001409544,-0.154573485,0.162873793
4.856155875,-0.057177163,0.002174945,-0.179191432,0.188105097
4.866164875,-0.041714329,-0.021850533,-0.184887789,0.190790528
4.876174875,0.009699873,-0.02688367,-0.161674928,0.164181612
4.886184875,0.063164766,-0.030209493,-0.127680386,0.145618275
4.896194875,0.145728749,0.013582863,-0.147077354,0.207492435
4.906203875,0.208547817,0.027638327,-0.155863965,0.261819871
4.916244875,-0.37081642,-0.064555819,-0.18419314,0.419045802
4.926253875,-0.37384166,-0.076488451,-0.095999587,0.393476798
4.936263875,0.250815511,0.051973707,0.113224314,0.280052553
4.946273875,-0.23416445,-0.033675577,0.086936402,0.252041608
4.956283875,-0.290017767,-0.101649678,-0.408819192,0.511445103
4.966293875,0.037990438,-0.001060246,-0.2548813,0.257699194