Time (s),Linear Acceleration x (m/s^2),Linear Acceleration y (m/s^2),Linear Acceleration z (m/s^2),Absolute acceleration (m/s^2)
0,-0.223324096,0.453987033,0.072179784,0.511065357
0.01001,-0.266625286,0.575328525,-0.598722723,0.872101401
0.020019,-0.122334861,0.460174045,-0.879791363,1.000379334
0.030029,0.312560172,0.305507224,-0.778043379,0.892401268
0.040039,0.419993587,0.520461542,-1.315341101,1.47560057
0.050049,0.551084982,0.307227328,-1.788122401,1.896171144
0.060058,0.750801055,0.122129478,-0.19476783,0.785208469
0.070068,-0.304710687,1.129982684,-1.172693013,1.656779518
0.080078,-0.317176731,1.474480384,-1.343954451,2.020125503
0.090088,0.00944762,0.989403194,1.435772694,1.743688954
0.100128,0.138476027,0.629078105,-1.15493268,1.32241611
0.110138,-0.913218141,0.91663825,-4.804017416,4.975216215
0.120148,-1.622636988,1.12631436,4.108922054,4.559032275
0.130157,-0.720525853,1.302487752,3.839670053,4.118093972
0.140167,0.68728202,1.084451293,-2.50848709,2.817960018
0.150177,-0.779694486,0.808301916,-2.070335925,2.355327222
0.160187,-1.588036821,0.345422584,6.28916283,6.495748363
0.170196,0.093403532,0.584908384,2.228293194,2.305674
0.180206,-0.518196294,1.104524857,-5.188803383,5.330307974
0.190216,-0.992131578,0.134414843,-2.859073861,3.029306152
0.200226,1.00040802,-1.479614824,1.484326218,2.32234807
0.210235,0.542790743,-0.06014066,3.52425136,3.566312709
0.220276,1.13456712,-2.176249758,0.124140481,2.457379991
0.230285,1.448144964,-1.628236136,-6.944020577,7.277891077
0.240295,-0.98717811,1.403536409,-7.323704263,7.522039564
0.250305,-1.33732824,0.624647962,-0.572527197,1.583167486
0.260315,-1.67278578,0.90904469,-0.780194569,2.057493154
0.270325,1.26068016,2.054611739,-1.744364178,2.975491598
0.280334,1.413654577,2.578111056,9.477738987,9.923336747
0.290344,-0.219719653,0.807604489,0.550475008,1.001760685
0.300354,0.928443121,-2.283464158,-4.404904602,5.047712328
0.310364,0.033299363,0.889328683,-3.024082872,3.152315271
0.320373,-0.189207347,0.476752728,17.72088517,17.72830685
0.330383,0.054153695,0.767578324,4.237933266,4.307225032
0.340423,0.808604144,-0.405391993,-7.84747913,7.89943745
0.350433,1.654015048,-1.592812242,-6.935121115,7.305389893
0.360443,-0.334678032,2.269396927,-8.649208995,8.948239381
0.370453,-1.690100993,0.942556545,4.268393167,4.686580249
0.380462,-1.075940451,1.099553993,-5.930181795,6.126477207
0.390472,-0.716463281,0.702090386,-11.24002313,11.28469629
0.400482,1.085685421,2.545452603,-0.026330597,2.767441975
0.410492,-0.942726553,2.964709367,23.60554171,23.80965843
0.420502,-1.271359515,2.333554185,2.214314255,3.45904868
0.430511,0.735925738,0.801678701,1.609242041,1.942661931
0.440521,-0.391033278,0.80497697,0.3415499,0.95788897
0.450531,0.451013321,2.018757636,-9.220377883,9.449558917
0.460571,0.308727432,1.865574619,0.525694508,1.96266044
0.470581,-2.268743062,0.539821235,6.755675329,7.146870028
0.480591,-0.413757421,2.013820832,-10.68532584,10.88130773
0.4906,0.236366164,1.829286214,-7.750222977,7.966687719
0.50061,-0.472767668,2.305997719,0.290033006,2.37176177
0.51062,-0.892118755,2.711773728,-0.098771167,2.856457311
0.52063,-1.676397312,2.078487236,7.996634585,8.430692843
0.530639,-0.654765069,-0.000111389,9.56595476,9.588337071
0.540649,0.089950569,0.958377649,3.334529677,3.470686818
0.550659,-0.542666636,-0.782836926,7.661494988,7.720480955
0.560669,-1.081239856,1.806760985,-5.586636241,5.970257061
0.570679,-0.720337646,2.742357005,-10.51053152,10.88626112
0.580719,-0.837122768,2.324897382,-9.254889904,9.579087092
0.590729,-0.849961573,2.436228661,-9.711969091,10.04887996
0.600738,-0.241703137,2.450747005,-7.063840551,7.480803741
0.610748,0.568376259,2.257488634,13.72658199,13.92258452
0.620758,-0.214855062,-1.341304493,24.44472942,24.48244385
0.630768,1.245509705,0.123380051,-9.870868345,9.94990246
0.640777,-1.066188319,1.380768521,15.49363863,15.59153992
0.650787,-0.308346851,2.109748205,-5.006219981,5.441355876
0.660797,-0.760439166,2.542794458,-10.873246,11.19247738
0.670807,-1.203850998,2.401429249,-8.975750846,9.369110038
0.680816,-1.166558699,2.417036052,-9.78411613,10.14553355
0.690826,-0.94071131,2.317593625,-8.272333142,8.642203052
0.700867,0.367055308,1.781341969,4.903117197,5.229576183
0.710876,0.595555798,0.649535612,38.25267659,38.26282594
0.720886,2.811903495,-3.521375407,-6.874901226,8.220167449
0.730896,0.411208145,2.340401859,-10.04246541,10.31977154
0.740906,-0.20383233,3.126222619,-4.811325266,5.741399333
0.750915,0.45428429,2.535985668,-5.045381708,5.665110246
0.760925,0.337144607,1.986193323,-6.691137271,6.987842899
0.770935,-1.437055719,2.083815804,3.913798714,4.661033986
0.780945,-4.176232862,2.141856143,11.91485496,12.80594539
0.790954,-2.638080977,3.165806515,-4.117584704,5.825487613
0.800964,4.038762483,3.407299445,4.448527755,6.907292602
0.811004,2.391163439,3.566150753,2.636231795,5.038334235
0.821014,-1.063921499,-0.483771726,7.941464936,8.027006252
0.831024,-2.487165803,-3.053717145,11.48248611,12.13913792
0.841034,-1.42468111,0.74374595,-11.49315494,11.60497672
0.851044,-0.620250052,3.200531375,-8.797203777,9.381839132
0.861053,-0.583912676,2.569931094,-8.619400474,9.013299305
0.871063,0.287982314,-0.743377576,-2.768927338,2.881406364
0.881073,0.089662776,0.559304742,-3.795444052,3.837480523
0.891083,-0.47022095,2.530974897,-9.624488897,9.962817282
0.901102875,-0.967022392,0.757191842,-3.899975896,4.088799797
0.911112875,-5.1401832,-2.964858471,51.00179591,51.34583776
0.921122875,-0.487513688,2.443636937,13.18170335,13.41515316
0.931162875,-0.360647344,2.465912928,-14.16638148,14.3839201
0.941172875,-1.249266103,1.196347632,0.220651699,1.743731809
0.951182875,-1.053788494,1.862945711,-3.100500718,3.767511329
0.961191875,3.400831255,-2.234020249,-5.099318764,6.523768202
0.971201875,1.27023071,-0.581767552,3.01262993,3.320824994
0.981211875,-0.974137284,2.610335062,-6.091553253,6.698493384
0.991221875,-0.066290103,2.669357149,-10.35318061,10.69196945
1.001231875,-0.632847001,2.242920296,-7.693430725,8.038660529
1.011240875,-0.866852352,-0.760019044,5.885254129,5.997105811
1.021250875,1.740791967,-5.429591138,3.334335549,6.605195694
1.031260875,4.096520402,-3.134840538,1.449465703,5.358139176
1.041270875,-0.69391057,2.00401929,-7.200461914,7.506281168
1.051310875,-0.553357393,0.937151891,-7.848864335,7.923959201
1.061320875,-2.917587533,1.585287314,21.06480723,21.3249046
1.071329875,-1.211638831,2.064913217,8.304223856,8.642457353
1.081339875,1.760090118,2.743486102,-1.04415601,3.422702878
1.091349875,-0.728406584,1.606697771,-9.080914189,9.250678698
1.101359875,-0.735023367,1.812267162,-8.467003908,8.689920989
1.111368875,4.460091501,-4.605261201,14.29807014,15.66957742
1.121378875,3.415181784,-5.558792385,14.687483,16.07127239
1.131388875,-1.411998792,1.803245054,-11.99571377,12.21239461
1.141398875,-0.528091939,0.766258389,-9.394423766,9.44040417
1.151408875,-0.766596358,0.66737437,-9.809766696,9.862280728
1.161417875,-0.707971516,0.513681878,-10.02692819,10.06500779
1.171458875,-0.315893743,0.714992414,-6.800823435,6.845597301
1.181467875,0.923015735,3.04773749,24.02377667,24.23391235
1.191477875,0.157668562,0.942107771,16.18255523,16.21072239
1.201487875,4.350361482,-5.766340474,9.98827225,12.32647192
1.211497875,-0.468588042,0.583905586,-2.444640173,2.556713918
1.221506875,-0.730672015,1.472921224,-11.55011033,11.66655164
1.231516875,-0.498562331,1.00055917,-9.333173012,9.399883059
1.241526875,-0.626443934,1.17947783,-10.0218189,10.11041314
1.251536875,-0.566389521,1.044655947,-9.869952672,9.941230753
1.261545875,-0.53945487,0.843681006,-9.694564269,9.746147216
1.271555875,0.601627181,0.573749777,4.411218426,4.488874254
1.281565875,3.548024677,0.980861143,43.07365911,43.23066825
1.291605875,-0.779004661,0.146254359,4.016993884,4.09444483
1.301615875,-1.298569971,1.330630547,-12.60414112,12.74053511
1.311625875,1.032470569,0.268334208,-9.352612665,9.413254612
1.321635875,1.298009662,0.21870443,-8.664724581,8.76413788
1.331644875,-1.251329146,0.319345244,3.054766136,3.316534662
1.341654875,-0.897650075,0.267876006,-3.012520003,3.154807439
1.351664875,0.068577607,1.446788117,-5.478282073,5.666522144
1.361674875,0.092516985,1.851976334,8.85991458,9.051876165
1.371683875,-1.501947972,1.066531989,4.846192213,5.184488129
1.381693875,-0.852436846,-0.054805733,-4.15433387,4.241242995
1.391703875,0.381989901,-1.233318699,8.681279803,8.776765367
1.401743875,-1.806294816,-0.35769165,3.573987776,4.020451828
1.411753875,-1.168083214,0.661384702,-5.867172199,6.018767128
1.421763875,-0.205413855,-0.048059216,3.007241721,3.014632201
1.431773875,0.617289022,0.35386377,-4.056671335,4.118597774
1.441782875,0.062385917,1.036182162,-5.883543819,5.974416569
1.451792875,-0.398730845,0.665575548,-4.028111195,4.102152715
1.461802875,-0.652036466,0.605555926,-6.009849524,6.075371662
1.471812875,-1.401244739,0.758809986,5.95466935,6.164200393
1.481821875,-0.07295465,1.936377384,8.231712534,8.456711595
1.491831875,-0.800962856,0.090791179,4.82786587,4.894698499
1.501841875,-0.249013692,-0.133257972,-2.349871425,2.366782884
1.511851875,0.146262764,-0.042143734,-0.767486231,0.782434665
1.521891875,-1.546015805,-0.502012919,2.598613733,3.065122375
1.531901875,-1.177665631,0.018294841,0.385431499,1.239269333
1.541910875,0.407671932,0.643645346,-6.868931803,6.911056348
1.551920875,0.294297746,0.879621867,-3.097253174,3.233159912
1.561930875,-0.030563542,0.836292245,-2.91013818,3.028072502
1.571940875,-0.399715114,0.60112761,-3.692786826,3.76268536
1.581950875,-1.375429136,0.891481847,2.867373984,3.302783486
1.591959875,-0.21868455,1.35764366,6.084687452,6.238144005
1.601969875,-0.931555594,0.298256823,3.465897902,3.601277721
1.611979875,-0.11996228,0.079956362,0.608537275,0.62538115
1.621989875,-0.40230554,0.12870416,-1.227422367,1.298067862
1.631998875,-0.292471989,-0.154511066,1.170003878,1.215862907
1.642039875,0.382803066,-0.941438631,3.181792218,3.340156673
1.652048875,0.097686252,0.204766861,-5.04361234,5.04871246
1.662058875,0.168907349,0.57128174,-2.715225924,2.779810126
1.672068875,0.202529643,0.256565444,-0.202444639,0.38448396
1.682078875,-0.310362203,1.022736051,-6.705876347,6.790514805
1.692087875,-0.428259686,0.975198261,-1.028941555,1.480924958
1.702097875,-1.046379999,1.12009972,1.292500123,2.005016472
1.712107875,-0.499426805,1.34101871,0.36296942,1.476314707
1.722117875,-0.02282837,1.721407424,3.888437585,4.252494739
1.732127875,-0.545352043,0.313433636,7.635035752,7.660902064
1.742136875,-0.791981752,-0.022659496,-1.415923151,1.622524859
1.752146875,-0.31145344,0.188236124,-3.139593447,3.160614355
1.762186875,-0.338627754,-0.929021264,4.029265435,4.14882263
1.772196875,-0.210181967,-0.856326121,1.21474268,1.501023205
1.782206875,-0.102028468,0.536356833,-6.442615988,6.465708718
1.792216875,0.795986291,0.480934949,-0.400268809,1.012476034
1.802225875,0.663860998,0.605164089,-0.780236084,1.189833327
1.812235875,-0.197776551,1.007994782,-7.145175321,7.218635564
1.822245875,-0.933832719,0.724109758,0.641947095,1.34479536
1.832255875,-1.015135109,1.247340614,-0.26476134,1.629863941
1.842264875,-1.125624754,1.389463184,2.940439621,3.441485754
1.852274875,-1.051970522,1.339560853,1.951917529,2.590568914
1.862284875,-1.035834545,0.4102196,1.156750579,1.606021553
1.872294875,-1.525686498,-0.107800583,3.817896776,4.112867132
1.882334875,-1.078577399,-0.210839194,1.949346508,2.237796725
1.892344875,0.145650122,0.586386414,-3.016947514,3.076854772
1.902348292,1.20000755,-0.369080418,0.532614103,1.363787468
1.912357292,1.148843682,-0.84325774,1.630382649,2.165426749
1.922367292,-0.515503615,0.213976006,-2.694725001,2.751921609
1.932377292,0.140051303,-0.0693232,-0.37496089,0.406221297
1.942387292,0.863447153,0.374584914,-1.216026728,1.53771774
1.952396292,0.250419472,0.883416637,-4.51342834,4.605884307
1.962406292,-0.362698877,0.866969661,-2.503253247,2.673848105
1.972416292,-1.231302141,1.038115398,-0.56861424,1.707955121
1.982426292,-1.399371145,1.062788163,-0.685025872,1.886006025
1.992435292,-0.07202761,1.765826967,2.496490358,3.058724728
2.002476292,0.05358805,1.771035813,2.45340281,3.026322005
2.012486292,-1.019290287,1.024916916,-0.130779995,1.451382369
2.022495292,-1.438561816,0.26025606,2.474901268,2.87442683
2.032505292,-1.349533572,-0.29535273,3.932072432,4.167693332
2.042515292,-0.491033968,0.235337566,-1.464159756,1.562133771
2.052525292,0.439146763,0.369747074,-1.876753326,1.962591609
2.062534292,1.084944213,-1.209675994,2.778995073,3.21919766
2.072544292,-0.139329245,-0.65794632,-0.283757774,0.729948267
2.082554292,-0.614302118,0.187028747,-3.972883074,4.024443659
2.092564292,0.892335248,-0.288972029,2.394465215,2.571620247
2.102573292,0.429582362,0.669371048,-2.38584408,2.514925562
2.112614292,-0.01772408,0.645248287,-2.645265158,2.722882159
2.122623292,-0.613797576,0.740293827,0.350468658,1.023528551
2.132633292,-0.717681694,1.024587499,-4.618294644,4.784714409
2.142643292,-1.272458937,0.999994475,1.871843419,2.47445721
2.152653292,-0.970575891,1.092866752,-1.332861114,1.978103649
2.162663292,-0.192396638,1.50829951,-0.765441459,1.702317393
2.172672292,0.161772248,1.901737894,3.330948257,3.839009452
2.182682292,-0.606924393,1.402006778,0.537732171,1.619609864
2.192692292,-1.423937052,0.688801858,-0.204370127,1.594933189
2.202702292,-1.347601944,0.150502726,4.349533224,4.555998391
2.212711292,-0.652651666,-0.204360699,2.37693994,2.473370367
2.222721292,-0.509391447,0.358950117,-3.686150821,3.738453251
2.232761292,0.412022516,0.486848238,-1.076734942,1.25145591
2.242771292,-0.310760508,-1.01655284,3.722221125,3.871031112
2.252781292,-0.004599054,-0.648973768,-1.48887886,1.624176211
2.262791292,0.153551099,0.005216009,-2.370364162,2.375338167
2.272800292,0.543669287,-0.609701528,2.823083664,2.938896668
2.282810292,0.391579042,0.050470973,-1.320884262,1.378628557
2.292820292,-0.030505545,0.36523814,-2.941927738,2.964670015
2.302830292,-0.797724229,0.022877085,2.434803402,2.562255825
2.312840292,-0.507034946,0.790716195,-3.904969418,4.016354403
2.322849292,-1.171445217,0.649400176,-0.445804585,1.411646632
2.332859292,-1.202690179,0.778705137,0.181561893,1.444233388
2.342869292,-0.000360956,1.167059952,-3.058661551,3.273750073
2.352909292,-0.011669106,1.253433998,1.529095425,1.977211616
2.362919292,0.092427449,1.687079006,-1.649574965,2.36132928
2.372929292,0.076266038,1.679754784,1.105623111,2.012410272
2.382938292,-0.731578845,1.182804676,1.983414726,2.422430284
2.392948292,-1.225180106,1.066737372,-1.351738849,2.113336894
2.402958292,-0.780675503,1.233411377,-0.689766794,1.614477035
2.412968292,-0.923889894,0.792518015,3.831063536,4.019789193
2.422977292,-1.414851064,0.229777449,1.281040165,1.922411276
2.432987292,-0.69596689,0.269603712,-0.145275242,0.760368969
2.442997292,-0.332855163,0.23880957,-0.34200072,0.533654441
2.453007292,0.290598286,0.287373327,0.389842638,0.564807999
2.463017292,0.113063224,-0.386411785,-0.280144195,0.490487645
2.473057292,0.567319521,-0.500837556,-0.899427482,1.175440127
2.483067292,0.172351907,-0.20825319,-0.394653727,0.478357749
2.493076292,-0.872735382,-0.574802714,1.637243187,1.942326043
2.503086292,0.186425278,-0.654810312,0.09566688,0.687519513
2.513096292,0.563118954,0.01797361,-2.002254454,2.080011757
2.523106292,-0.209078598,-0.237615495,0.361795299,0.480698265
2.533115292,-0.49029064,0.06857768,-0.173282821,0.524513819
2.543125292,-0.48501404,0.312266386,-1.255389014,1.381575366
2.553135292,-0.538522714,0.27661657,0.458760846,0.759595257
2.563145292,-0.604239133,0.377247443,-0.925024254,1.167514639
2.573154292,-0.67176658,0.491647121,-0.526168717,0.984804929
2.583164292,-0.825216814,0.638906251,-0.878608471,1.364234889
2.593205292,-0.445503783,0.84962872,0.061657135,0.961324183
2.603214292,-0.19785516,1.039670392,-0.858216891,1.362570152
2.613224292,-0.302722743,1.180342487,-0.742388227,1.426881118
2.623234292,-0.244541595,1.376205354,0.017225897,1.397869271
2.633244292,-0.37512008,1.509838497,-0.378113124,1.601029949
2.643253292,0.182709884,1.828092213,-0.625096589,1.940631285
2.653263292,-0.287854955,1.384232996,0.675250497,1.566819931
2.663273292,-0.904631139,1.157914102,0.658778306,1.610314076
2.673283292,-1.340137973,1.119816788,-1.066892908,2.046514086
2.683292292,-1.077469498,1.210074994,-0.097212299,1.623167348
2.693302292,-0.253431446,1.597098689,0.837959213,1.821298263
2.703312292,-0.237742562,1.050810215,1.749423773,2.054557658
2.713352292,-0.95675607,0.431004478,-1.044208635,1.480377895
2.723362292,-0.353127935,0.367474115,1.036984985,1.155454206
2.733372292,-0.057641888,0.427426713,1.049520831,1.134685047
2.743382292,-0.625209294,-0.073024561,-0.551954938,0.837181881
2.753391292,0.034999679,-0.331399791,-0.32145185,0.463014137
2.763401292,0.849467776,-0.63427818,1.026330189,1.475553444
2.773411292,0.000317833,-0.534218067,-1.131115217,1.25092393
2.783421292,0.024929238,-0.197644514,-0.377476362,0.426817554
2.793430292,-0.746982092,-0.384265637,0.121380011,0.848749334
2.803440292,-0.507672147,-0.478508135,0.527438148,0.874581068
2.813450292,0.186008226,-0.314252539,-0.646138964,0.742192212
2.823460292,0.428235237,0.072237087,-0.833828155,0.940145205
2.833500292,-0.18593868,-0.695625631,1.341801506,1.52279332
2.843510292,-0.432797015,-0.644218666,-1.073017282,1.324272265
2.853519292,0.544973436,-0.340575534,-0.849009281,1.064802563
2.863529292,0.061764358,-0.895803378,1.038795283,1.373089279
2.873539292,-0.294807185,-0.6882702,-0.340576338,0.822568773
2.883549292,-0.688088205,-0.247482598,-1.359786372,1.543933934
2.893559292,0.164298391,-0.47810497,0.884371487,1.018671316
2.90359275,-0.323639768,-0.097599019,-0.993654778,1.049579957
2.91360275,-0.312078581,-0.265553418,-0.14994249,0.436342078
2.92361275,-0.108318501,-0.326939096,0.541318268,0.641597645
2.93362275,-0.171534211,-0.032319461,-0.977924014,0.993380043
2.94363175,-0.208696665,-0.028976535,0.319654416,0.382848381
2.95367275,-0.5426355,-0.128040355,-0.3704024,0.669362052
2.96368175,-0.128952484,0.087374797,-0.373337703,0.404529528
2.97369175,-0.458650443,-0.152580096,0.267363351,0.552380372
2.98370175,-0.071276554,-0.00861843,-0.282626338,0.291602934
2.99371175,-0.300362697,0.051240686,-0.565846753,0.642670916
3.00372075,-0.372005999,0.075307314,0.373341211,0.532393947
3.01373075,0.122273977,0.018540059,-0.471890768,0.487827384
3.02374075,0.06506608,-0.169357877,0.079557801,0.198103834
3.03375075,-0.09694837,-0.023066462,-0.387019018,0.399643301
3.04376075,-0.369739692,0.097556335,0.070282947,0.388798625
3.05376975,-0.413821631,0.228469573,-0.217863162,0.520491158
3.06381075,-0.256079906,0.482323663,-0.084810355,0.55263535
3.07381975,-0.351574147,0.620446591,-0.122917829,0.723648496
3.08382975,-0.021046523,0.656840246,-0.08688904,0.6628965
3.09383975,-0.00079862,0.630841113,-0.139045619,0.645983616
3.10384975,-0.232000962,0.554460762,-0.10466633,0.610087063
3.11385875,-0.248111284,0.508255407,-0.181642,0.59403416
3.12386875,-0.256137336,0.462186364,-0.154631957,0.55057571
3.13387875,-0.126985079,0.493489506,-0.165203138,0.535676376
3.14388875,-0.266520621,0.771628033,0.072236502,0.819549373
3.15389775,-0.285598807,0.836372205,-0.128892514,0.893139644
3.16390775,-0.114656097,0.660146773,-0.173846492,0.692215563
3.17391775,-0.347420175,0.539621479,-0.153495258,0.659888561
3.18395775,-0.213889102,0.513752301,-0.162552595,0.57975281
3.19396775,-0.128472592,0.61082032,-0.094487497,0.631295935
3.20397775,-0.213176326,0.804289995,0.007967416,0.832099767
3.21398775,-0.074619389,0.633277867,-0.149108677,0.654860526
3.22399675,-0.022882676,0.423490441,-0.24714134,0.49086313
3.23400675,-0.225871947,0.294818367,-0.207805367,0.42558087
3.24401675,-0.252347573,0.556678977,0.029592174,0.61192032
3.25402675,-0.289950542,0.63722598,-0.137897226,0.713543209
3.26403575,-0.072100883,0.380158041,-0.112385239,0.402925695
3.27404575,0.021226014,0.262960544,-0.2757658,0.381635386
3.28405575,-0.221355302,0.425682854,0.030842308,0.480786138
3.29406575,-0.290326975,0.356588646,-0.310212332,0.554686313
3.30410575,0.008072081,0.433778178,0.066430802,0.438909692
3.31411575,-0.337346994,0.43723973,-0.285137132,0.621518109
3.32412575,-0.11074948,0.154336746,-0.186288782,0.266061626
3.33413475,0.05676064,0.154765785,-0.169647607,0.236547097
3.34414475,-0.29570243,0.220912339,-0.211589684,0.425455501
3.35415475,-0.197034174,0.195435582,0.00969176,0.277689508
3.36416475,-0.09858983,0.180947132,-0.2138356,0.296963774
3.37417375,0.099656198,-0.053650835,-0.368083979,0.385091659
3.38418375,0.085780554,-0.115672763,-0.078939165,0.1642251
3.39419375,-0.479412554,0.074259127,-0.22753738,0.535839597
3.40420375,-0.277067938,0.150633631,0.150809047,0.349571884
3.41421275,0.046807144,0.324539765,-0.058610151,0.333094757
3.42425375,-0.127094166,0.195297149,-0.22735904,0.325554967
3.43426275,-0.16944913,0.070044016,-0.532735725,0.563406181
3.44427275,-0.103391746,0.152570009,-0.028075991,0.186428866
3.45428275,-0.134293806,0.301366079,0.09861797,0.344357146
3.46429275,-0.044687492,0.467300412,-0.002066406,0.469436808
3.47430275,-0.075349304,0.456862693,-0.424923593,0.628459305
3.48431175,-0.109212321,0.356012914,-0.232912726,0.439227577
3.49432175,0.091535859,0.556124149,0.380270746,0.679896112
3.50433175,-0.070795748,0.586865885,-0.447117285,0.741173038
3.51434175,0.004239706,0.460628519,-0.302067161,0.550854951
3.52435075,0.029402468,0.492826943,0.093174212,0.502418486
3.53436075,-0.204913224,0.439047762,-0.112279404,0.49735202
3.54440075,-0.137802629,0.288286881,-0.615842786,0.693802009
3.55441075,0.02518743,0.345289706,0.134634479,0.37146444
3.56442075,-0.089763038,0.386501612,0.163264201,0.429064213
3.57443075,-0.150376682,0.487943641,-0.559300795,0.757310718
3.58443975,-0.081513,0.617591542,0.680987785,0.922934475
3.59444975,-0.411620739,0.430209769,-0.433463452,0.736479899
3.60445975,-0.012563857,0.540750796,-0.160103197,0.564094236
3.61446975,-0.009204212,0.543366109,0.121011636,0.556754221
3.62447975,-0.082155865,0.605017324,-0.552596378,0.823503676
3.63448875,-0.022045465,0.926808824,0.491788843,1.049436451
3.64449875,-0.210174074,0.743929772,-0.194864309,0.797230673
3.65450875,-0.011206445,0.931954885,-0.283709242,0.974246595
3.66454875,0.014547471,1.073932152,0.207932251,1.093973362
3.67455875,-0.123687724,1.108530492,-0.225909516,1.138056947
3.68456875,-0.029478528,1.231748137,-0.182670525,1.245568536
3.69457775,-0.270372949,1.372889544,0.243848189,1.420348257
3.70458775,-0.353511549,1.39593152,-0.201814894,1.454071689
3.71459775,-0.146831844,1.479367049,-0.453408889,1.554241318
3.72460775,-0.196936379,1.449307829,0.217843282,1.478760567
3.73461675,-0.295445993,1.476190549,-0.155437703,1.513468781
3.74462675,-0.180245685,1.455467724,-0.142697205,1.473511892
3.75463675,-0.196056848,1.258798234,-0.326814916,1.315225939
3.76464675,-0.094998388,1.195890087,-0.157371377,1.209935347
3.77465675,-0.116554971,1.210429481,-0.128971451,1.222848406
3.78469675,-0.307467722,1.124694828,-0.189774892,1.181308328
3.79470675,-0.164927953,1.064535092,-0.016562238,1.077362752
3.80471575,-0.072304038,0.990443049,-0.215954046,1.016288078
3.81472575,-0.167544071,0.864076532,-0.173984486,0.897201132
3.82473575,-0.18302271,0.820474868,-0.042413948,0.841709727
3.83474575,-0.117306164,0.798564036,-0.270236088,0.851171427
3.84475475,-0.158651223,0.786416007,-0.240604738,0.837562527
3.85476475,-0.135066543,0.874878386,-0.212942145,0.910494107
3.86477475,-0.06161413,0.653593653,0.19252016,0.684138126
3.87478475,-0.127515924,0.669034395,-0.401846387,0.790789385
3.88479375,-0.002152049,0.734655065,-0.227785887,0.769161301
3.89480375,-0.129258586,0.499918264,0.135440226,0.533825915
3.904854125,-0.078571778,0.44903678,-0.309748063,0.551136477
3.914863125,0.046998805,0.321224393,-0.163858863,0.363653304
3.924873125,-0.091596706,0.279028729,-0.082153965,0.304952885
3.934883125,-0.197721277,0.329573011,0.016032481,0.384667536
3.944893125,-0.243542142,0.281074889,-0.104502608,0.386311614
3.954902125,-0.145456652,0.232664073,-0.170379678,0.322985206
3.964912125,0.048663087,0.156356776,-0.021930567,0.165216486
3.974922125,0.009221461,0.143965612,-0.361170232,0.388915247
3.984932125,0.01175294,0.169545646,-0.150602056,0.227078922
3.994941125,-0.084342651,0.091073709,0.09559262,0.156671798
4.004951125,-0.112322674,0.089449755,-0.245420505,0.28433935
4.014961125,0.000992291,0.080907302,-0.177551288,0.19511903
4.025001125,-0.011950941,-0.016694495,-0.120074912,0.121817551
4.035011125,-0.08655447,-0.141287076,-0.092476639,0.189751529
4.045021125,-0.040960276,-0.070731502,-0.185791184,0.2029755
4.055031125,0.014688516,0.01772408,-0.258841619,0.259863193
4.065040125,0.021580904,0.040006686,-0.102057887,0.111723241
4.075050125,-0.073483933,0.04488056,-0.152772542,0.175367051
4.085060125,-0.091002684,0.057567373,-0.167994014,0.199543177
4.095070125,-0.055012322,0.072147515,-0.085694454,0.124800476
4.105079125,-0.059126551,0.027833514,-0.150246545,0.163843455
4.115089125,-0.039541704,-0.006898253,-0.143916349,0.149408995
4.125099125,-0.027058064,-0.056343551,-0.135468292,0.149192469
4.135109125,-0.001165734,-0.06065357,-0.193382624,0.202674749
4.145149125,-0.009200393,-0.039062434,-0.171872472,0.176495517
4.155159125,-0.066611261,-0.020099877,-0.108896205,0.129226347
4.165168125,-0.061589947,0.040923274,-0.134207048,0.153230439
4.175178125,-0.023396811,0.08976291,-0.171799382,0.195242973
4.185188125,0.007967654,0.156701286,-0.171987078,0.232805351
4.195198125,-0.034594503,0.215858042,-0.152695359,0.266659608
4.205208125,-0.100285815,0.246926455,-0.10357407,0.285932696
4.215217125,-0.093323974,0.256949643,-0.101001295,0.291433945
4.225227125,-0.047600008,0.279830748,-0.16552532,0.328587339
4.235237125,-0.015969459,0.306024995,-0.152390719,0.342241512
4.245247125,-0.041984945,0.323814637,-0.151977321,0.360160743
4.255287125,-0.069671219,0.363299824,-0.129088395,0.391796701
4.265297125,-0.082017852,0.353365807,-0.120592391,0.382278493
4.275306125,-0.049587733,0.335989599,-0.151989015,0.372086838
4.285316125,0.003777941,0.336426021,-0.181505175,0.382283755
4.295326125,-0.023333881,0.330154992,-0.152617591,0.364470736
4.305336125,-0.070431832,0.31965321,-0.111826245,0.345895832
4.315345125,-0.097049801,0.328496648,-0.129864321,0.366324247
4.325355125,-0.05886551,0.303257325,-0.127159399,0.334065362
4.335365125,-0.027185113,0.291514398,-0.155014949,0.331284333
4.345375125,-0.054412599,0.278099204,-0.149875832,0.320566161
4.355385125,-0.102551099,0.279951091,-0.115655002,0.319789651
4.365394125,-0.0646106,0.310788283,-0.140610334,0.347181728
4.375435125,-0.040793356,0.351091386,-0.148234518,0.383278921
4.385444125,-0.059985526,0.365262881,-0.13111621,0.392691604
4.395454125,-0.079271598,0.373993651,-0.139991698,0.407127637
4.405464125,-0.074617452,0.378827434,-0.132845231,0.408320762
4.415474125,-0.051992181,0.3783556,-0.134548525,0.40491907
4.425483125,-0.06370631,0.375759693,-0.143141009,0.407115695
4.435493125,-0.078279271,0.355305511,-0.13734291,0.38888652
4.445503125,-0.065439096,0.32865255,-0.142912967,0.364306039
4.455513125,-0.044163106,0.316757888,-0.153590568,0.354790082
4.465522125,-0.049714087,0.287978623,-0.148411104,0.327763686
4.475532125,-0.064552091,0.257587099,-0.139332132,0.29988586
4.485542125,-0.054880541,0.231724791,-0.133544558,0.273024544
4.495582125,-0.036966938,0.216561755,-0.14377894,0.262560339
4.505592125,-0.025929112,0.201551221,-0.158970591,0.258005547
4.515602125,-0.036465667,0.185149306,-0.142566812,0.236506462
4.525612125,-0.045508825,0.183113635,-0.142622945,0.236522643
4.535621125,-0.03980218,0.175257535,-0.143284265,0.229847336
4.545631125,-0.030590659,0.174514646,-0.149184691,0.2316187
4.555641125,-0.029089569,0.192334803,-0.145506792,0.242922017
4.565651125,-0.048640721,0.209910474,-0.144806296,0.259609688
4.575660125,-0.040702231,0.230241352,-0.138121174,0.271560694
4.585670125,-0.037888057,0.248425535,-0.138017094,0.286704499
4.595680125,-0.046879558,0.260858872,-0.153172492,0.306115756
4.605690125,-0.046777396,0.265308018,-0.152905274,0.309768449
4.615730125,-0.052980561,0.269642559,-0.14680195,0.311552343
4.625740125,-0.047856829,0.282004194,-0.146980875,0.321589831
4.635750125,-0.049569332,0.281443556,-0.14088106,0.318614292
4.645759125,-0.056683512,0.269238992,-0.138214145,0.307905513
4.655769125,-0.046530443,0.261759306,-0.141538872,0.301191415
4.665779125,-0.049930379,0.251117703,-0.141873917,0.292713771
4.675789125,-0.045532926,0.240902909,-0.146249388,0.285475643
4.685798125,-0.043477356,0.226901752,-0.140140802,0.270211269
4.695808125,-0.035483883,0.213132911,-0.148559039,0.262210853
4.705818125,-0.038578924,0.212894966,-0.140672899,0.258072595
4.715828125,-0.057282394,0.207159907,-0.140867026,0.256982526
4.725837125,-0.051042721,0.188305231,-0.137770341,0.238840713
4.735878125,-0.035566913,0.191842577,-0.141852282,0.241227382
4.745887125,-0.039834559,0.206030079,-0.150276366,0.258104962
4.755897125,-0.042622803,0.213079409,-0.138793019,0.257843053
4.765907125,-0.049230468,0.21238359,-0.140930761,0.259599514
4.775917125,-0.044754223,0.214638642,-0.137518326,0.258812629
4.785927125,-0.038260086,0.221311338,-0.141144769,0.265262867
4.795936125,-0.040776015,0.22959465,-0.143871326,0.273998805
4.805946125,-0.044928214,0.233311835,-0.142401336,0.277003785
4.815956125,-0.043914874,0.242193646,-0.140926668,0.283631105
4.825966125,-0.039498727,0.234327058,-0.137067506,0.274329766
4.835975125,-0.034850849,0.230467639,-0.136944129,0.270339803
4.845985125,-0.046764807,0.220365259,-0.142059858,0.26632461
4.856025125,-0.039902935,0.222195803,-0.138640407,0.26492335
4.866035125,-0.037343334,0.215128127,-0.142416539,0.260685838
4.876045125,-0.045184432,0.212609987,-0.145596839,0.261616282
4.886055125,-0.035433268,0.20623718,-0.151767406,0.258500747
4.896064125,-0.037164172,0.196303455,-0.146262252,0.247606277
4.9061085,-0.036112861,0.196614929,-0.144052005,0.246399166
4.9161185,-0.030415352,0.201881845,-0.138695371,0.246815272
4.9261285,-0.033847083,0.199395901,-0.134387142,0.242825564
4.9361385,-0.030779524,0.201722325,-0.137708361,0.246176498
4.9461475,-0.030402086,0.207027248,-0.13848604,0.250924195
4.9561575,-0.035507181,0.21262212,-0.144802787,0.259685912
4.9661675,-0.042304751,0.208734745,-0.14587926,0.258148492
4.9762075,-0.038298349,0.212080997,-0.144109892,0.259254265
4.9862175,-0.041926309,0.209047681,-0.145631922,0.258200319
4.9962275,-0.046528341,0.208660485,-0.130538505,0.250488295
5.0062365,-0.048628004,0.212626944,-0.137598433,0.257891894
5.0162465,-0.040536389,0.202531288,-0.143307654,0.251394521
5.0262565,-0.04132527,0.20327202,-0.150069959,0.256023993
5.0362665,-0.037804899,0.207710788,-0.14979514,0.258865922
5.0462755,-0.027558896,0.196299069,-0.148022849,0.247393575
5.0562855,-0.02582198,0.192142795,-0.149546633,0.244846532
5.0662955,-0.036079751,0.200257634,-0.141789717,0.248010468
5.0763055,-0.041034864,0.188589589,-0.14870405,0.243644798
5.0863155,-0.03895046,0.179854068,-0.148729193,0.236611489
5.0963555,-0.042431928,0.19128373,-0.145008025,0.243756561
5.1063655,-0.037750885,0.191915887,-0.146835279,0.244576034
5.1163745,-0.033028856,0.194472216,-0.140276458,0.242049237
5.1263845,-0.029967839,0.190365132,-0.158862417,0.249748318
5.1363945,-0.039419461,0.190993379,-0.15529737,0.249298291
5.1464045,-0.039733895,0.202226246,-0.144548433,0.25173098
5.1564135,-0.031852269,0.200263664,-0.134100628,0.243111252
5.1664235,-0.035644791,0.194735268,-0.145199813,0.24551041
5.1764335,-0.039787763,0.187108416,-0.138787172,0.236335576
5.1864435,-0.032458808,0.201687681,-0.138811145,0.246981839
5.1964525,-0.032259454,0.20108878,-0.133451588,0.243488595
5.2064625,-0.030267417,0.193523981,-0.140960582,0.241324539
5.2165035,-0.02840793,0.194755149,-0.143977745,0.243856863
5.2265125,-0.039722877,0.18855615,-0.146094437,0.241815866
5.2365225,-0.034413916,0.183030093,-0.14447125,0.235703785
5.2465325,-0.029541175,0.180882227,-0.154524368,0.239726598
5.2565425,-0.037339022,0.184929926,-0.149457756,0.240688389
5.2665515,-0.03496412,0.177684605,-0.139752547,0.228746766
5.2765615,-0.032801089,0.18404082,-0.144270106,0.236137245
5.2865715,-0.032484864,0.185380235,-0.137410153,0.233029285
5.2965815,-0.033907108,0.178903164,-0.144171873,0.23225323
5.3065905,-0.036919119,0.175809914,-0.15272518,0.235790432
5.3166005,-0.027919632,0.18294878,-0.141373395,0.232886665
5.3266105,-0.037686145,0.183605459,-0.142740474,0.235597226
5.3366505,-0.033912809,0.180724389,-0.148298838,0.236228552
5.3466605,-0.026070853,0.186296238,-0.184883696,0.263757386
5.3566705,0.111748331,0.218517575,-0.336247644,0.416293284
5.3666805,0.02754965,0.330957266,-0.15726028,0.367454067
5.3766895,0.105824718,0.332826219,-0.035724733,0.351067543
5.3866995,-0.159003006,0.253667272,-0.182801503,0.350778321
5.3967095,-0.207345739,0.129155163,-0.053242992,0.250016255
5.4067195,-0.134476184,0.007359452,0.027198324,0.137396341
5.4167285,-0.015990856,0.024552751,-0.208786529,0.21083254
5.4267385,0.072133189,0.077370979,-0.222793534,0.246630137
5.4367485,-0.104257481,0.11342195,-0.034397416,0.157852284
5.4467585,-0.234871634,0.109919687,-0.037751963,0.262053874
5.4567985,0.04176763,0.060035263,-0.116782345,0.137792902
5.4668085,0.155466026,0.013943088,-0.200677026,0.254234859
5.4768175,-0.032760286,-0.012108085,-0.213172526,0.21601474
5.4868275,-0.094169993,0.178343074,-0.033223879,0.204396834