Time (s),Linear Acceleration x (m/s^2),Linear Acceleration y (m/s^2),Linear Acceleration z (m/s^2),Absolute acceleration (m/s^2)
0,-0.00278872,-0.00648541,-0.215374587,0.215490256
0.01001,-0.018568162,-0.006961352,-0.170918207,0.172064727
0.02002,0.015868676,-0.033962721,-0.247555323,0.250377554
0.030029,-0.001692915,-0.018222962,-0.209534388,0.210332123
0.040039,-0.00724534,-0.005927035,-0.169873309,0.170131026
0.050049,0.016761839,-0.009684099,-0.237384092,0.238172097
0.060059,-0.013850857,0.003165641,-0.206847008,0.207334397
0.070068,-0.022975154,0.020393537,-0.173465838,0.176165125
0.080078,0.020299413,0.017021048,-0.212983076,0.21462426
0.090088,0.011297542,0.003989642,-0.220075749,0.220401649
0.100098,-0.036669899,0.002987891,-0.174866831,0.178695321
0.110107,0.0005145,0.007568133,-0.205849473,0.205989191
0.120148,0.01527924,-0.012537837,-0.233419095,0.234254405
0.130157,-0.019826693,-0.004420687,-0.192673942,0.193741808
0.140167,-0.016100226,0.003575892,-0.198398366,0.199082686
0.150177,0.009245855,-0.001393967,-0.212970212,0.213175374
0.160187,-0.012914069,0.007040552,-0.199185986,0.199728314
0.170197,-0.014618377,0.010290985,-0.190497608,0.191334628
0.180206,0.00477713,0.002902101,-0.207139369,0.207214771
0.190216,-0.001030188,0.013520444,-0.198450406,0.198913115
0.200226,-0.001039809,0.005891705,-0.189746241,0.189840537
0.210236,0.005244404,-0.008736476,-0.209060764,0.209308941
0.220245,0.004147503,-0.011081168,-0.194397701,0.194757439
0.230255,-0.0110638,-0.004108811,-0.195739052,0.196094535
0.240295,-0.000460505,-0.010337087,-0.21071728,0.210971182
0.250305,-0.01733789,0.000238356,-0.193214809,0.193991293
0.260315,-0.016926438,0.007912114,-0.18917029,0.19009078
0.270325,0.00626002,0.004134475,-0.199801113,0.199941908
0.280334,-0.004292048,0.012379903,-0.191716753,0.192163984
0.290344,-0.011143313,0.003926396,-0.179733469,0.180121375
0.300354,-0.002641708,-0.001110797,-0.197389721,0.197410523
0.310364,0.001472786,-0.003343054,-0.195147899,0.195182088
0.320374,-0.005327782,-0.001275986,-0.187511435,0.187591449
0.330383,-0.006905726,-0.003339235,-0.190963047,0.191117044
0.340393,0.000986973,-0.006252044,-0.196210923,0.196312986
0.350403,-0.000450784,-0.00365551,-0.18378325,0.183820154
0.360443,-0.001073192,0.002491686,-0.194414658,0.194433586
0.370453,0.004497907,0.005028313,-0.195166025,0.195282596
0.380463,-0.006329392,-0.0007278,-0.183938202,0.184048507
0.390472,-0.00587869,0.000863903,-0.188426524,0.188520186
0.400482,-0.003223698,-0.006764342,-0.185733297,0.185884389
0.410492,-0.006496732,-0.001176981,-0.191570572,0.191684316
0.420502,0.002458124,0.003185431,-0.188275666,0.188318655
0.430511,0.003126442,0.002418527,-0.188126562,0.188168083
0.440521,-0.002040276,0.001022194,-0.185880647,0.185894654
0.450531,-0.002266225,0.003292334,-0.187676911,0.187719467
0.460541,-0.003581639,-0.0018501,-0.190673025,0.190715635
0.470551,-0.000880088,0.004878442,-0.18169404,0.181761652
0.480591,-0.005536308,0.009654731,-0.179597813,0.179942322
0.490601,-0.004746185,0.006677708,-0.178400304,0.178588315
0.50061,-0.003846317,-0.004050978,-0.158791666,0.158889892
0.51062,0.001811659,-0.000274426,-0.226748006,0.22675541
0.52063,0.004381437,-0.016192475,-0.172411001,0.173225132
0.53064,-0.007910095,0.005660799,-0.181393493,0.181654105
0.540649,-0.00018416,-0.000248123,-0.187081665,0.18708192
0.550659,0.002412031,-0.002869704,-0.174956294,0.174996451
0.560669,-0.021603013,5.55942E-05,-0.184686645,0.185945826
0.570679,-0.002437147,-0.00144318,-0.175107152,0.175130058
0.580688,-0.009280701,-0.000415166,-0.203548009,0.203759897
0.590698,-0.025619585,0.003172229,-0.163282328,0.165310449
0.600739,-0.007718663,0.00293554,-0.184086721,0.184271853
0.610748,0.002304543,-0.007093623,-0.188428279,0.188575838
0.620758,-0.006910952,-0.00534928,-0.173908473,0.174127921
0.630768,0.003365712,-0.003600916,-0.192019638,0.192082889
0.640778,0.003668232,-0.000686696,-0.184241087,0.18427888
0.650787,-0.011394177,0.000254975,-0.179751011,0.18011196
0.660797,-0.007767514,0.003260343,-0.170321206,0.170529403
0.670807,-0.002998754,0.003957971,-0.183349387,0.183416618
0.680817,-0.009998465,-0.000220394,-0.174370987,0.174657548
0.690826,0.004504403,0.003024765,-0.164341258,0.1644308
0.700836,0.004617519,0.006816862,-0.183652273,0.183836744
0.710876,-0.007347383,-0.000309309,-0.174818884,0.174973489
0.720886,0.001809887,-0.010258716,-0.149222698,0.149585863
0.730896,0.002993738,-0.003722077,-0.188292623,0.188353201
0.740906,-0.004250606,0.000674216,-0.179459819,0.179511417
0.750916,-0.010831848,0.002485126,-0.15655803,0.156951972
0.760925,-0.002092326,0.000715242,-0.190539708,0.190552538
0.770935,0.001772958,-0.003584069,-0.173923675,0.173969635
0.780945,-0.013826874,0.000128502,-0.182155386,0.182679456
0.790955,-0.004678823,-0.001411532,-0.182005697,0.182071298
0.800964,0.007177613,0.002905276,-0.177365347,0.177534292
0.811005833,-0.012085491,-0.001151883,-0.179611262,0.180021086
0.821015833,0.003857582,-0.005567965,-0.174072779,0.174204523
0.831055833,0.0057122,-0.003795017,-0.179013677,0.179144991
0.841065833,0.001743064,-0.001402181,-0.168235504,0.168250377
0.851075833,9.49442E-05,0.004227953,-0.173025543,0.173077217
0.861084833,0.003842242,0.002402036,-0.180362629,0.180419541
0.871094833,0.004886884,-0.005387784,-0.168088154,0.168245468
0.881104833,-0.00144757,-0.004307932,-0.168836598,0.168897752
0.891114833,0.010722112,0.005158596,-0.181560139,0.181949605
0.901124833,-0.00464607,0.006621579,-0.17272675,0.172916054
0.911133833,-0.010456219,-0.002199078,-0.169582703,0.169918985
0.921143833,-0.004493448,-0.01019187,-0.173324336,0.173681866
0.931153833,-0.00570754,-0.001617792,-0.176317526,0.176417298
0.941163833,-0.003546866,4.69605E-06,-0.169131882,0.169169069
0.951203833,0.00893778,0.002130095,-0.171525732,0.171771645
0.961213833,0.01126636,0.007348785,-0.172125072,0.172649865
0.971222833,-0.004760447,0.002710294,-0.16478857,0.164879594
0.981232833,-0.001938087,-0.001236412,-0.166734524,0.166750371
0.991242833,-0.002554795,0.003261294,-0.177961178,0.178009393
1.001252833,0.003097562,0.001952847,-0.162692344,0.162733547
1.011261833,0.000432201,0.009279961,-0.172423865,0.172673952
1.021271833,0.00023271,0.012953848,-0.166885382,0.167387536
1.031281833,-0.002752111,-0.001845171,-0.16239472,0.16242852
1.041291833,0.001148037,-0.002174703,-0.180954368,0.180971076
1.051301833,-0.002233819,-0.003188605,-0.172870007,0.172913841
1.061310833,-0.000284339,0.000456384,-0.166134015,0.166134885
1.071351833,0.003460291,-8.22859E-05,-0.170476742,0.170511876
1.081360833,-0.009753412,0.003150283,-0.172573553,0.172877658
1.091370833,-0.008239321,-0.001552162,-0.169131297,0.169338984
1.101380833,0.00338975,-0.000894473,-0.166287212,0.166324163
1.111390833,-9.04034E-05,-0.000321574,-0.180057989,0.180058299
1.121399833,-0.002499009,0.0113174,-0.166885382,0.167287355
1.131409833,0.001260842,6.00847E-05,-0.176615734,0.176620244
1.141419833,0.006275753,-0.003617403,-0.169431844,0.169586617
1.151429833,-0.007243878,0.005422383,-0.163743088,0.163992911
1.161438833,-0.008695577,0.002213066,-0.17107842,0.171313562
1.171448833,-0.001279024,-0.007591513,-0.173771648,0.173942095
1.181489833,-0.012944045,-0.006825277,-0.164790909,0.165439344
1.191498833,-0.001014528,-0.003048414,-0.160151728,0.160183951
1.201508833,-0.005363112,-0.00157524,-0.162548502,0.162644581
1.211518833,0.001949462,-0.00064757,-0.168536051,0.168548569
1.221528833,0.007199247,0.00630191,-0.166738032,0.167012319
1.231537833,-0.004715779,0.006751241,-0.169882665,0.17008215
1.241547833,-0.004483864,0.001273076,-0.162097682,0.162164682
1.251557833,0.005042328,-0.002489151,-0.16179772,0.161895408
1.261567833,0.002905134,-0.004586236,-0.154312699,0.154408168
1.271576833,-0.003820863,0.005185663,-0.166886551,0.167010811
1.281586833,-0.003315243,0.001081429,-0.162394136,0.162431572
1.291596833,-0.008298752,0.013943654,-0.16419157,0.164991413
1.301636833,-0.009672217,0.008073945,-0.161197795,0.161689423
1.311646833,-0.001390185,0.002763399,-0.156108963,0.156139609
1.321656833,-0.00063329,0.001716523,-0.164192739,0.164202933
1.331666833,0.008378731,-0.003215676,-0.158356633,0.15861074
1.341675833,0.002228849,-0.011699465,-0.184105432,0.184490258
1.351685833,-0.0201319,-0.00361479,-0.146531809,0.147952462
1.361695833,-0.002346762,0.001339972,-0.178117298,0.178137797
1.371705833,0.011810672,0.024272879,-0.199970682,0.201784386
1.381714833,0.019053107,0.086872202,-0.124379048,0.152905029
1.391724833,0.006584038,0.199178951,-0.159552974,0.255289552
1.401734833,-0.008036696,0.363073062,-0.143963127,0.390655883
1.411744833,-0.029515319,0.377113286,-0.116681773,0.395853787
1.421784833,-0.037692486,0.266960807,-0.143129899,0.305245743
1.431794833,-0.039607851,0.170491908,-0.1152609,0.209574205
1.441803833,0.096189329,0.022912557,-0.251913838,0.270625117
1.451813833,-0.038496844,-0.315672974,-0.049512468,0.321843002
1.461823833,-0.099063802,-0.388546822,-0.159657639,0.431593364
1.471833833,-0.015213724,-0.364798904,-0.250801697,0.442957322
1.481843833,0.091783114,-0.362855399,-0.143208836,0.400745495
1.491852833,0.092953306,-0.300834056,-0.326783926,0.453794205
1.501862833,0.016373063,-0.244333032,-0.148088338,0.286176281
1.511872833,-0.076003607,-0.186431582,-0.097662535,0.22376607
1.521882833,0.022529569,-0.06694765,-0.199163767,0.211319131
1.531891833,0.063156699,0.059440793,-0.20682245,0.224271046
1.541932833,-0.015922151,0.237473792,-0.125392955,0.269018047
1.551941833,-0.087638827,0.369301553,-0.092426353,0.390649243
1.561951833,-0.027486582,0.408352365,-0.12680038,0.428468788
1.571961833,0.002234979,0.362048228,-0.108051867,0.377834779
1.581971833,-0.028374655,0.311710608,-0.123731761,0.336568229
1.591980833,-0.080934363,0.302820885,-0.078333979,0.323089882
1.601990833,0.002128496,0.351456837,-0.145820203,0.380512773
1.612000833,0.065630464,0.433488229,-0.283373027,0.522034171
1.622010833,-0.022359497,0.344554711,-0.150252977,0.376555245
1.632020833,-0.081866848,0.090045184,-0.053203815,0.132819283
1.642029833,0.026018346,-0.005313456,-0.225772106,0.227328465
1.652070833,0.099093531,0.045595628,-0.237889291,0.261705567
1.662079833,0.013434745,0.246180076,-0.169904884,0.299420761
1.672089833,-0.073424876,0.339670824,-0.004453239,0.347544691
1.682099833,-0.014196226,0.342268632,-0.110245158,0.359865731
1.692109833,0.084955329,0.468563593,-0.311841366,0.569222528
1.702118833,0.045722102,0.373262603,-0.006280494,0.37610494
1.712128833,-0.082085516,0.222686165,-0.035509556,0.239975183
1.722138833,-0.066725154,0.099146777,-0.17440841,0.211425218
1.732148833,-0.062803226,0.01734772,-0.00194186,0.065184042
1.742157833,-0.049517456,0.195108211,-0.220085104,0.298256007
1.752167833,0.037956396,0.354536419,-0.183610173,0.401060415
1.762177833,0.019177661,0.453647017,-0.052219144,0.457045116
1.772217833,-0.020196977,0.547725026,-0.113547081,0.55973526
1.782227833,0.004474966,0.320044717,-0.043840084,0.323064389
1.792237833,0.059616639,0.087576654,-0.307092842,0.324853548
1.802247833,0.107561999,-0.009714436,-0.226778412,0.25118201
1.812257458,0.044191758,-0.101543131,-0.109796092,0.155945826
1.822267458,-0.042784662,0.028217895,-0.309885473,0.314095182
1.832277458,-0.00892276,0.150457666,0.1258964,0.196384899
1.842287458,-0.07066435,0.248875131,-0.16158605,0.305028413
1.852296458,0.09545956,0.337480749,-0.361957267,0.504002824
1.862306458,0.177249334,0.262587729,0.045920523,0.320122377
1.872316458,0.014955095,0.241193772,-0.166981861,0.293736331
1.882326458,-0.000443054,0.257458643,-0.255132145,0.362460426
1.892366458,0.064053726,0.056237794,-0.119210694,0.14654951
1.902376458,0.057227193,-0.108375438,-0.043083454,0.129909088
1.912386458,0.121649531,-0.157071123,-0.269037409,0.334441435
1.922395458,-0.026835413,-0.085771281,-0.092562009,0.129013865
1.932405458,-0.076754171,0.209006604,-0.177608591,0.284815334
1.942415458,-0.043155138,0.294779228,0.149078271,0.333138845
1.952425458,0.031509531,0.22483741,-0.263939806,0.348150733
1.962434458,0.117222056,0.144528681,-0.205931334,0.277555876
1.972444458,-0.022762297,-0.064354867,-0.051624482,0.085584801
1.982454458,-0.003060085,-0.048961761,-0.302101659,0.306058868
1.992464458,-0.016435701,-0.220899073,0.087366757,0.238116532
2.002473458,-0.020139072,-0.173713669,-0.015833091,0.175592448
2.012514458,0.14662805,0.242358683,-0.680237002,0.736858125
2.022523458,0.22947692,0.267465202,-0.166867256,0.389925598
2.032533458,0.145658052,-0.104432368,0.553865224,0.582141798
2.042543458,0.02722608,-0.048656088,-0.677651948,0.67994179
2.052553458,-0.053989023,0.035653142,-0.500557328,0.504721309
2.062563458,0.027450594,-0.075774355,0.446282887,0.453501603
2.072572458,0.171048727,0.085334439,-0.658176627,0.685372969
2.082582458,-0.010970784,0.041734904,-0.154484022,0.16039786
2.092592458,-0.356812923,0.120176069,0.216839315,0.434484796
2.102602458,-0.0310731,0.155722901,-0.62201803,0.641966969
2.112611458,0.055211173,-0.057943354,0.066280528,0.103917344
2.122652458,0.072249467,-0.040640917,-0.447923616,0.455529621
2.132661458,-0.04677344,0.04639264,-0.221275012,0.230873695
2.142671458,-0.218986632,0.191420884,-0.033332053,0.292759501
2.152681458,-0.094514988,0.216777078,-0.309621763,0.389603672
2.162691458,-0.016253071,0.173964478,-0.132476857,0.219266777
2.172700458,-0.049460976,0.094663936,-0.28389343,0.303320175
2.182710458,-0.030101229,-0.026232332,-0.10402489,0.1114244
2.192720458,0.052468852,0.015450806,-0.315437404,0.320144442
2.202730458,0.094291231,0.109986446,-0.274028007,0.309966455
2.212740458,-0.008489298,0.11531505,-0.101213549,0.153667861
2.222749458,-0.066787601,0.184899064,-0.752786915,0.778033667
2.232759458,-0.357710361,-0.192815189,0.588708782,0.715340778
2.242799458,0.304071458,0.327028851,-0.38300432,0.588302329
2.252809458,0.162872822,0.636335303,-0.938157685,1.145246705
2.262819458,0.233270941,0.315504574,-1.441556175,1.494002233
2.272829458,-0.565434159,0.031992113,-0.808351251,0.987001028
2.282838458,-0.732483409,-0.15066178,2.154056359,2.280173176
2.292848458,0.540406322,0.264925537,-0.672454943,0.902452316
2.302858458,0.028152194,0.205806679,0.509561455,0.550274306
2.312868458,-0.149812115,0.264675587,-0.000291191,0.304133065
2.322877458,0.023664568,0.353889754,-1.832540774,1.866548595
2.332887458,-0.299647747,0.363318937,0.246461894,0.531538228
2.342897458,-0.176719375,0.567458465,0.260890483,0.64907834
2.352907458,-0.002623936,0.522742249,-0.017922885,0.523055995
2.362947458,0.106877253,0.407496113,0.000876498,0.421279715
2.372957458,0.036373884,0.15269218,-0.510264875,0.533861596
2.382967458,0.019229364,-0.111975331,-0.021500797,0.115630997
2.392976458,-0.051661183,0.074544892,-0.035947512,0.097560455
2.402986458,0.050920715,-0.06468099,0.687954158,0.692861799
2.412996458,-0.194686882,0.220236766,-0.457808334,0.544054856
2.423006458,-0.231961877,0.326855956,-0.613900341,0.733153979
2.433015458,-0.10205986,0.044781038,0.616024634,0.626025484
2.443025458,0.066969011,0.372609395,-0.559461009,0.675514049
2.453035458,0.398498601,0.129485695,-0.066483427,0.424249603
2.463045458,0.006286762,-0.206946995,1.189228354,1.207116672
2.473054458,-0.307709358,-0.006256822,0.12302074,0.331448788
2.483095458,0.139021974,-0.023477681,-0.298092808,0.329753898
2.493105458,0.382505041,-0.090224785,0.181309878,0.4328093
2.503114458,0.166609357,0.055751429,0.017454523,0.176554694
2.513124458,0.134137996,0.068661588,-0.240406517,0.283729993
2.523134458,0.342929112,0.046791393,0.038331422,0.348222785
2.533144458,0.350488173,0.096799212,-0.437769926,0.569082204
2.543153458,0.279979779,0.133197681,-0.698710696,0.764412804
2.553163458,0.05306805,-0.124449516,0.325204008,0.352223717
2.563173458,-0.544694304,-0.394388995,0.198667338,0.70121557
2.573183458,-0.017328169,-0.218865905,-0.338370184,0.403357076
2.583192458,0.090065065,-0.042965743,-0.57723596,0.585797853
2.593233458,0.101404552,-0.350485797,0.604246003,0.705858633
2.603242458,0.141572603,-0.464419342,0.0954365,0.49480931
2.613252458,0.571856156,-0.132646682,-0.884933404,1.061942435
2.623262458,0.492545692,-0.051260744,-0.713921642,0.868857315
2.633272458,0.283103763,-0.028491641,0.461840574,0.542453897
2.643282458,-0.125724894,0.368332669,-0.356287807,0.527652068
2.653291458,-0.264545267,0.348017212,-0.316270047,0.539561786
2.663301458,-0.386281867,-0.039730323,-0.240556206,0.456792587
2.673311458,-0.471828788,-0.026119617,-0.863821447,0.984627916
2.683321458,-0.002673,-0.055365334,0.203097188,0.210525374
2.693330458,-0.105306033,-0.011353159,-0.565840906,0.575668469
2.703340458,-0.381038084,-0.228752688,-0.707249385,0.835296058
2.713380458,-0.357648088,-0.253194305,-0.274971163,0.517328379
2.723390458,-0.073771803,-0.127171769,-0.423767014,0.448545895
2.733400458,-0.049454736,-0.025906336,0.184418258,0.192683686
2.743410458,-0.031822567,0.030565927,-0.88208698,0.883189895
2.753419458,0.175580045,0.14387446,-0.580138518,0.622967826
2.763429458,-0.243204958,0.195681658,0.184763244,0.362736019
2.773439458,0.118906803,0.150468557,-0.279250156,0.338762843
2.783449458,-0.237188612,0.351365913,-1.19708058,1.269928485
2.793459458,-0.390511377,0.411376764,0.089812648,0.57427893
2.803468458,0.308197381,0.066007002,0.390663003,0.501956305
2.813493958,0.06231036,0.027789194,0.459512798,0.464550139
2.823503958,-0.085545231,-0.054206992,-0.291425228,0.308520742
2.833543958,-0.099226044,-0.055138874,-0.623609642,0.63385731
2.843553958,-0.472153053,-0.070312444,0.025136011,0.478021091
2.853563958,-0.060283418,-0.035665348,0.853951932,0.856819707
2.863572958,-0.063706849,-0.081972801,-0.090340651,0.137620987
2.873582958,-0.228462666,-0.060293651,-0.460122077,0.517245435
2.883592958,0.109874472,-0.162009206,0.609747648,0.640399545
2.893602958,0.283491635,-0.447162711,0.302980496,0.610015719
2.903611958,-0.111165272,-0.39069085,0.033948934,0.407614509
2.913621958,0.193713431,-0.451666638,0.445401127,0.663256971
2.923631958,0.308265282,-0.290970388,-0.471867964,0.634311143
2.933641958,-0.042814647,-0.485307424,0.133181446,0.505068003
2.943651958,-0.424175077,-0.686144079,0.506848932,0.952687794
2.953691958,0.089304506,-0.160388614,-0.12931936,0.224551329
2.963701958,0.462002981,-0.005688619,-0.676868421,0.819530338
2.973710958,0.015798007,-0.249784903,-0.208440959,0.325714151
2.983720958,0.016506397,-0.062781303,-0.320550209,0.327057166
2.993730958,0.141548739,0.020986292,-0.182116209,0.231609118
3.003740958,0.097917199,-0.309124092,0.647178599,0.723868511
3.013749958,0.365110232,-0.247481886,-0.460730188,0.637828403
3.023759958,0.278020121,-0.205384893,-0.779146163,0.852377197
3.033769958,-0.340537308,-0.521750086,0.551234561,0.831894435
3.043779958,-0.140600448,-0.458462638,0.215309683,0.525656481
3.053788958,0.362112584,-0.168346108,-0.826081179,0.917538037
3.063829958,0.22897554,-0.075711333,-0.319426959,0.400244408
3.073838958,0.453022096,0.15285465,-0.324156772,0.577642776
3.083848958,0.431549293,0.183524603,0.412262617,0.624400943
3.093858958,0.212706557,0.953115009,-0.882909683,1.316511226
3.103868958,-0.1046677,1.063105959,0.206939394,1.088105473
3.113878958,0.013142339,0.918309531,-0.183229519,0.936503162
3.123887958,0.277340035,0.760249863,-1.259306649,1.496913687
3.133897958,-0.444004958,0.158372092,0.166722245,0.500018429
3.143907958,-0.921988233,-0.09558395,-0.792590666,1.219589504
3.153917958,-0.633574979,-0.242228656,-0.294668679,0.739541484
3.163926958,-0.150221539,-0.122380716,-0.613989803,0.643837735
3.173936958,-0.077728929,-0.043137007,-0.505330995,0.513090637
3.183976958,-0.068481242,-0.204321047,0.236219911,0.319744612
3.193986958,0.297641111,0.017452344,-1.178314526,1.215450508
3.203996958,-0.047849529,0.28526822,0.039162312,0.291892482
3.214006958,-0.350500159,0.362772259,-0.220032479,0.550334776
3.224015958,-0.033401329,0.254002756,-0.255311655,0.361686452
3.234025958,0.204022364,0.237185761,-0.196512054,0.369457979
3.244035958,0.203226558,0.170207989,-0.554754585,0.614836924
3.254045958,0.151293672,-0.25401456,0.795659285,0.84881498
3.264055958,-0.194794343,-0.278128477,0.137339986,0.366282074
3.274064958,-0.525459377,-0.147733658,-1.179956424,1.300088441
3.284074958,0.165179877,-0.077824001,0.778580738,0.799705528
3.294084958,0.191058758,0.10967246,1.024630988,1.048045876
3.304124958,-0.295378805,0.262094864,-0.48883366,0.628411253
3.314134958,-0.428598166,0.474580707,0.007514257,0.639515207
3.324144958,0.113494401,0.068398212,1.459372641,1.465376334
3.334153958,-0.111214206,0.475692007,-0.401873869,0.632577341
3.344163958,0.290821083,0.365989361,-0.005287052,0.467496596
3.354173958,0.103945002,0.087610732,0.48123228,0.500064707
3.364183958,-0.209314241,0.516796361,-0.420928191,0.698621122
3.374192958,-0.18407234,0.163534288,0.608026228,0.655989317
3.384202958,0.160074143,0.257987834,-0.215066439,0.372068578
3.394212958,0.374678031,0.302777707,-1.201473593,1.294448439
3.404222958,0.397480125,-0.173839256,0.388500118,0.58235975
3.414232958,0.248693009,-0.244963253,0.421231661,0.547075242
3.424272958,-0.093710329,-0.127828183,-0.928491653,0.941922725
3.434282958,-0.266083743,-0.380871913,0.679467509,0.823128221
3.444291958,-0.08898587,-0.038146477,-0.492282348,0.501712616
3.454301958,0.349129572,0.378846218,-0.999346458,1.124326135
3.464311958,0.453767981,0.284817783,1.145467207,1.264563827
3.474321958,0.122321924,0.759417585,-1.883274726,2.034306126
3.484330958,-0.143613646,0.324350607,-0.019957716,0.355283698
3.494340958,-0.066023132,0.248871696,-0.435249192,0.505705481
3.504350958,0.072542179,0.066552972,-1.617760849,1.620753476
3.514360958,-0.208273034,-0.315842031,-0.227334482,0.44137831
3.524370958,-0.231077175,-0.052987829,-1.534949073,1.55314939
3.534410958,0.013801265,-0.48364338,1.248653022,1.339117531
3.544420958,-0.017932881,-0.031399822,-0.919585758,0.920296422
3.554429958,-0.273610662,0.06053891,-0.56015215,0.626337118
3.564439958,-0.545491389,-0.006724134,-0.063191444,0.549180506
3.574449958,-0.210419931,0.119768235,-0.869668078,0.902742236
3.584459958,0.15797037,0.013626881,0.073628724,0.174818531
3.594468958,0.418196372,0.066108967,1.003074642,1.088768726
3.604478958,0.082032507,-0.168126929,-0.353590486,0.400027784
3.614488958,-0.031376232,-0.214007015,-0.352856076,0.413873025
3.624498958,-0.36561291,-0.070259275,0.588517578,0.696392206
3.634507958,-0.209253685,-0.260278079,0.874462211,0.936064069
3.644517958,0.018808574,-0.101913789,0.459362524,0.470907753
3.654557958,-0.125587411,-0.517530552,1.819575158,1.895907125
3.664567958,-0.426275689,-0.405582758,-0.556992899,0.810215667
3.674577958,0.30530681,-0.231139119,-0.620005419,0.728727837
3.684587958,0.300716801,-0.283726382,-0.124480205,0.431771439
3.694597958,-0.150603225,-0.632394938,0.165160453,0.67073293
3.704606958,0.008009772,-0.568858581,0.642142977,0.857911327
3.714616958,0.023231079,-0.086824693,-0.975216168,0.979349164
3.724626958,0.017915339,-0.221128467,-0.269191775,0.348830862
3.734636958,0.340733701,-0.288615933,0.175926932,0.479946765
3.744645958,0.11357935,-0.187858577,-0.8086173,0.837886061
3.754655958,0.543396807,-0.335768648,0.640578847,0.904633591
3.764665958,0.033350992,-0.193000326,-1.085850751,1.103373585
3.774705958,0.105746603,0.147756472,-1.110992024,1.125752014
3.784715958,0.43583289,-0.283137988,1.793464417,1.867252538
3.794725958,0.039091487,0.093047136,-1.500265144,1.503656016
3.804749958,0.727338444,-0.270628363,-0.604785701,0.983883462
3.814759958,0.790241182,-0.273777929,0.134315806,0.847039678
3.824769958,-0.280987619,0.206454331,-0.609528378,0.702212415
3.834779958,-0.982902626,0.436417977,-1.294848365,1.683208397
3.844789958,-1.075645898,0.25022211,-0.991856759,1.48438709
3.854798958,0.257188903,0.093895585,0.323839268,0.424068844
3.864808958,0.067471611,-0.144961603,-0.217502389,0.269951058
3.874818958,0.319430358,-0.13144856,-0.674274012,0.757601426
3.884828958,0.308681969,-0.075869089,0.271826531,0.418246745
3.894868958,-0.218409731,-0.123683567,-1.160201606,1.187041786
3.904878958,-0.258276595,0.045476665,-0.133213021,0.294143903
3.914887958,-0.451150841,0.08528683,0.460534891,0.650310165
3.924897958,-0.253798377,-0.234129897,0.767574524,0.841665655
3.934907958,0.023260569,-0.471870157,-0.533032764,0.712268507
3.944917958,0.360437978,-0.50544253,-1.024331025,1.19776531
3.954926958,0.162289726,-0.246191387,0.574419356,0.645682392
3.964936958,-0.38365855,-0.135372471,0.803107468,0.900278399
3.974946958,-0.220140908,0.022237856,0.622022123,0.660203047
3.984956958,-0.250350183,-0.019893146,0.214543113,0.330302435
3.994966958,-0.393789801,-0.035389418,1.430492073,1.484126137
4.005006958,-0.316864125,0.122278116,-0.14759074,0.370321263
4.015016958,0.189875976,0.152436939,-0.804472793,0.840515545
4.025025958,0.464145108,0.061892828,0.218599911,0.516766219
4.035035958,0.03976452,-0.006166322,-0.135691071,0.141532001
4.045045958,0.052313065,-0.00415509,-0.344983969,0.348952519
4.055055958,-0.0004669,-0.039852356,-0.674168762,0.675345799
4.065064958,0.280777211,-0.145525869,0.226031138,0.388720588
4.075074958,0.094538861,-0.250794096,0.658080733,0.710567045
4.085084958,0.305776141,-0.399081203,0.381132041,0.630893404
4.095094958,-0.107773111,-0.125154206,-1.256235691,1.26704646
4.105103958,-0.160602512,-0.440531676,0.013672544,0.469093021
4.115113958,0.016732548,0.595695546,-0.392446404,0.713545613
4.125154958,0.608625202,0.630158962,-0.450806878,0.985267373
4.135163958,0.378165091,0.216727761,0.348748407,0.558216096
4.145173958,-0.013508978,0.450481627,-2.337532046,2.380582335
4.155183958,-0.20075494,-0.083776695,0.886543143,0.912841621
4.165193958,-0.077774692,0.122627414,-1.061705843,1.071590259
4.175202958,0.042662272,-0.084043675,-0.472594188,0.481901106
4.185212958,-0.149698387,-0.194299102,-0.774668366,0.812571735
4.195222958,-0.004366328,-0.204984871,-0.986729336,1.007805856
4.205232958,0.184557531,-0.330728275,0.738046085,0.829550901
4.215241958,0.186772311,0.080144048,-1.213003133,1.229912015
4.225251958,0.073598648,0.004823587,0.187007405,0.201026858
4.235261958,-0.351825467,0.038607502,-0.132872128,0.378056479
4.245301958,-0.760788245,0.130339096,-0.743376991,1.071632579
4.255311958,-0.368751951,0.176857589,0.230333519,0.469372068
4.265321958,-0.004648911,0.229882315,0.589133874,0.632413008
4.275331958,0.053333459,0.070315637,0.203786575,0.222075921
4.285340958,-0.15866469,0.06366336,0.193735211,0.25838119
4.295350958,-0.275379847,0.093065728,-0.403902268,0.4976267
4.305360958,-0.010349435,-0.161412132,0.136853498,0.211872289
4.315370958,-0.022144237,-0.300007589,0.941975332,0.988843995
4.325379958,-0.176046562,-0.137465116,1.14992337,1.171414874
4.335389958,-0.272817195,0.260975542,-0.490087888,0.618646582
4.345399958,0.053234604,-0.120240781,0.786371568,0.797290418
4.355409958,-0.350665855,-0.178485381,0.736885997,0.835358932
4.365449958,0.400580027,0.309054291,-1.225323216,1.325668095
4.375459958,0.99697395,0.243632536,-1.153951517,1.544317964
4.385468958,0.083311713,-0.077329929,0.205975773,0.235258961
4.395478958,-0.212482207,0.185348733,-0.142808887,0.316065214
4.405488958,0.096580873,-0.201148037,0.381537838,0.441994932
4.415498958,0.115494861,-0.409325488,0.584779453,0.723086043
4.425508958,0.145261913,-0.005662532,-1.352337019,1.36012812
4.435517958,0.085436153,-0.049072342,-0.597377864,0.605448382
4.445527958,0.018222829,-0.105325585,1.915939611,1.918919004
4.455537958,0.168968745,0.736973047,-2.62645525,2.733120358
4.465547958,0.132976118,0.21883316,-0.502200395,0.563716096
4.475556958,-0.266416413,0.008179085,0.193498399,0.329372484
4.485597958,-0.177980821,-0.033255957,-1.55510501,1.565610016
4.495606958,-0.319289659,-0.344275689,-0.201441842,0.510930966
4.505616958,-0.177491592,-0.017741051,-1.886852052,1.895264804
4.515626958,-0.321737194,-0.368650355,0.379931608,0.619488445
4.525636958,0.10724021,0.065693482,0.316410965,0.340487878
4.535645958,0.492700753,0.12544304,-1.324030064,1.418289674
4.545655958,-0.150806114,-0.106174235,-0.341836998,0.388417283
4.555665958,-0.531858058,-0.027800358,-0.181646093,0.562708767
4.565675958,-0.265909167,0.077703174,-0.093989314,0.292539671
4.575685958,-0.022821164,0.135851778,0.722700652,0.735712405
4.585694958,0.138702104,0.452656206,0.617547249,0.778139139
4.595735958,-0.12306188,0.313982142,0.109819481,0.354667915
4.605744958,-0.413776827,0.2026875,-0.222618703,0.511715323
4.615754958,-0.130305703,0.225789703,0.615909444,0.668808649
4.625764958,-0.141734899,0.222632882,1.333559271,1.359424331
4.635774958,-0.341710296,0.431684217,-0.020067644,0.550926402
4.645783958,0.196851065,0.072161457,0.517097347,0.557985021
4.655793958,-0.077998915,-0.03413768,-0.459739085,0.467556668
4.665803958,0.149852315,-0.276404133,-0.045893041,0.317743816
4.675813958,0.257921212,-0.229391533,0.097259077,0.35861282
4.685822958,0.026780979,-0.003692544,-1.205715748,1.20601879
4.695832958,-0.015015887,-0.536100944,0.758267511,0.92876225
4.705842958,0.229902122,-0.455416421,0.135357195,0.52780742
4.715882958,0.52184598,-0.41341028,-0.289637734,0.7260312
4.725892958,-0.133176312,0.038463807,-1.254467493,1.262103041
4.735902958,-0.166608571,-0.037350022,0.636329091,0.658838487
4.745912958,0.157609286,0.053333496,-0.134578346,0.214001121
4.755921958,0.189713387,0.102452519,-2.036646023,2.048027029
4.765931958,0.061352011,0.127087186,-0.376374747,0.401961655
4.775941958,-0.180515424,-0.099116911,0.192347667,0.281793551
4.785951958,-0.135730083,-0.281347954,-1.702575881,1.730995078
4.795960958,-0.809053941,0.013873812,-1.46466554,1.673321818
4.805977375,-0.224243059,0.157870638,0.360186145,0.452705365
4.815987375,0.223713411,0.441588268,-0.675481462,0.837450353
4.825997375,0.120012311,0.402768201,-0.275512031,0.502525678
4.836037375,0.128856654,0.120827467,0.141596759,0.226391157
4.846047375,0.146168944,-0.226604421,-0.681763126,0.733154747
4.856057375,-0.004411251,-0.553799844,0.869043011,1.030509331
4.866066375,-0.32374838,-0.682596646,0.294640612,0.810903376
4.876076375,-0.485991877,-0.784132084,-0.996353268,1.357855318
4.886086375,-0.02948815,-0.551479231,0.700459013,0.891987512
4.896096375,0.120097945,-0.588821121,0.821313944,1.017688766
4.906105375,-0.051172319,-0.161459367,0.618631908,0.641399385
4.916115375,-0.101575364,0.035875884,1.586298151,1.589951715
4.926125375,-0.091259249,0.210747229,-0.668256058,0.706617862
4.936135375,0.054674755,-0.185204032,-0.105560954,0.220074936
4.946144375,0.519469051,-0.106621364,0.475071069,0.711975232
4.956185375,0.064665747,-0.183830558,-0.733695171,0.759133676
4.966194375,-0.100270667,-0.281358004,-0.580235581,0.652602377
4.976204375,-0.160300704,-0.737520055,0.869323093,1.151240542
4.986214375,0.354096343,-0.360428001,-0.094751206,0.514072325
4.996224375,0.275228806,0.26558768,-2.030264372,2.06597704
5.006234375,0.337508743,-0.730078084,2.009265851,2.164272492
5.016243375,0.411408851,-0.132044455,-0.674547077,0.801066002
5.026253375,0.455879521,0.813898651,-1.965423428,2.175579555
5.036263375,0.199168755,0.414547855,2.34901013,2.393609557
5.046273375,-0.205308587,1.03861687,-1.815463396,2.101614608
5.056282375,-0.076070773,0.795137275,-0.920455239,1.218715675
5.066292375,-0.424781396,-0.081212161,0.062957556,0.437033527
5.076332375,-0.006884678,-0.317373271,-1.368615083,1.404948553
5.086342375,0.205421384,-0.360320302,-1.116028816,1.19060866
5.096352375,0.173664205,-0.215508744,-0.165578529,0.32252058
5.106362375,0.023662903,-0.186300513,-0.373934703,0.418443517
5.116371375,-0.378623695,-0.047765813,-1.2620028,1.31844171
5.126381375,-0.399007564,0.003850245,0.034007991,0.400472726
5.136391375,0.178998364,0.116696382,0.00271954,0.213695709
5.146401375,0.426692267,0.034619747,-0.100426514,0.43971616
5.156411375,-0.18256829,-0.237825794,0.562494544,0.637410701
5.166420375,0.088957319,-0.177850684,0.305343356,0.364388303
5.176430375,-0.124184564,-0.04912192,-1.262962328,1.27000339
5.186470375,-0.238393613,0.059353734,0.05795117,0.252413785
5.196480375,-0.474959533,-0.208305596,2.906781294,2.952686111
5.206490375,-0.116815418,-0.373689267,0.412390087,0.568643204
5.216500375,-0.159361934,-0.456724041,0.466729431,0.672182593
5.226509375,-0.187866946,-0.469971091,-0.622819684,0.80254045
5.236519375,-0.28849475,-0.705169457,0.297538492,0.817937857
5.246529375,0.003863712,-0.473234422,0.386072938,0.610752045
5.256539375,0.120169126,-0.544020815,-0.765063145,0.946425317
5.266548375,0.449045039,-0.631921386,-0.316924936,0.837500747
5.276558375,0.413998619,-1.043532843,0.41236202,1.195992511
5.286568375,0.066756601,-1.090147577,-0.490694245,1.197355012
5.296578375,0.15383076,-0.895314112,-0.46035889,1.018421116
5.306618375,-0.143428838,-1.123603299,0.446892752,1.217690164
5.316628375,0.427210915,-0.890418824,-0.118332442,0.994664473
5.326638375,0.161101718,-0.757546403,-0.952924243,1.227963733
5.336647375,-0.273717338,-0.726209785,-0.663847842,1.021271653
5.346657375,0.126276122,-0.516594925,0.538601652,0.756906675
5.356667375,-0.068804319,-0.184069727,-1.147968646,1.164666352
5.366677375,-0.182443105,-0.346516123,0.468365482,0.61051219
5.376686375,0.020324664,-0.273178316,-0.767097391,0.814541522
5.386696375,0.41437518,-0.222382968,-0.878616073,0.996557664
5.396706375,0.060308415,-0.316205216,0.466935838,0.567143651
5.406716375,-0.111405438,-0.256505528,-0.98557568,1.024483128
5.416725375,0.199945192,-0.143495313,-0.13290078,0.279699128
5.426766375,0.023516005,0.236621871,-0.669827789,0.710782793
5.436776375,0.291321513,0.420015002,-0.036567317,0.512462676
5.446785375,0.210157902,0.387289598,-0.973526323,1.06860333
5.456795375,-0.089498214,0.227286389,-0.205216219,0.319034057
5.466805375,0.148503728,0.186390962,0.066268834,0.247359064
5.476815375,0.22234445,0.152187126,-0.608334376,0.665333517
5.486824375,-0.042875001,-0.288654233,-0.079987571,0.30258477
5.496834375,-0.342072787,-0.368353207,-0.478927892,0.694312468
5.506844375,-0.319622731,-0.079343656,0.210468189,0.390833679
5.516854375,-0.602709026,-0.220305398,0.171263192,0.664171453
5.526863375,-0.287204361,-0.305487782,0.525412672,0.672210983
5.536873375,-0.203724576,-0.151372481,-0.520975805,0.579511105
5.546913375,0.088607948,-0.06411011,-0.402033498,0.416644223
5.556923375,0.631115348,0.099571578,1.070053328,1.246288573
5.566933375,-0.032363964,0.223260636,-0.504781941,0.552899218
5.576943375,-0.271687477,0.84363262,-1.215476505,1.504298247
5.586953375,0.044582352,0.430134669,0.914830803,1.011888737
5.596962375,0.283697347,-0.086615938,0.681890595,0.743613669
5.606972375,0.055110126,-0.263756989,0.431803427,0.508978463
5.616982375,-0.415025719,-0.519485569,1.07134147,1.260906083
5.626992375,-0.427626944,-0.691964982,-0.567011518,0.991555546
5.637001375,-0.04120986,-0.544690723,-0.601988978,0.812881889
5.647011375,-0.01708571,-0.642350992,-0.384955536,0.749064405
5.657021375,-0.057968455,-0.986882167,0.614960441,1.164247868
5.667061375,0.120690734,-1.165387794,0.916793128,1.487684309
5.677071375,-0.056068494,-0.851253223,-2.190901419,2.351132653
5.687081375,0.847332592,-0.985321034,-0.38254122,1.35468367
5.697090375,0.460066017,-1.161839704,0.676695344,1.421073125
5.707100375,-0.22882523,-0.886797204,-1.399536914,1.672565048
5.717110375,0.134994375,-0.85443959,0.351630499,0.933774332
5.727120375,-0.107718174,-1.028507545,0.440382462,1.123996303
5.737130375,-0.078341964,-0.757314999,-0.76955673,1.082534541
5.747139375,-0.169314425,-0.846833459,-0.265248413,0.90341076
5.757149375,-0.122183912,-1.012461251,0.238437175,1.047310355
5.767159375,-0.239426195,-1.045228828,-0.334012839,1.123117439
5.777199375,0.267780404,-0.956254233,-0.330211564,1.046502833
5.787209375,0.216166465,-1.085366528,-0.326637161,1.153880529
5.797219375,-0.037981137,-1.284123694,-0.070359546,1.286610545
5.807253875,0.056190884,-1.235950385,-0.332966187,1.281248317
5.817263875,-0.098349217,-1.272242883,-0.422156106,1.344057402
5.827273875,0.006200424,-1.061686767,-0.126225598,1.069181995
5.837283875,-0.111565569,-0.959336081,-0.146495556,0.97684878
5.847292875,-0.113646447,-0.916544548,-0.203007726,0.945611739
5.857302875,0.01743457,-0.739549331,-0.259926277,0.784091096
5.867312875,-0.010550478,-0.658247378,-0.22759059,0.696561843
5.877322875,0.079854346,-0.576546281,-0.156225908,0.602651528
5.887332875,0.070181316,-0.372300991,-0.230144069,0.443282909
5.897372875,0.072193543,-0.127588712,-0.143469037,0.205119848
5.907382875,0.00136189,-0.171230484,-0.108652377,0.202798108
5.917391875,-0.125270949,-0.337687229,-0.171243896,0.398810666
5.927401875,-0.002136189,-0.214717342,-0.139335641,0.255973672
5.937411875,0.071833684,-0.177227809,-0.153437955,0.245179486
5.947421875,-0.048192441,-0.275338094,-0.232859516,0.363809197
5.957430875,0.178677425,-0.211786279,-0.093216897,0.292349859
5.967440875,0.144640618,-0.078080209,-0.275959343,0.321202407
5.977450875,-0.00246515,-0.07507094,-0.086834076,0.114812368
5.987460875,-0.077698313,-0.03773073,-0.159516136,0.181400203
5.997469875,-0.091630273,-0.111088655,0.008476124,0.144252005
6.007479875,-0.046862894,-0.09589092,-0.292134495,0.311020518
6.017520875,0.078396051,-0.152452371,-0.223092912,0.281350517
6.027529875,-0.003554687,-0.213056988,-0.095886735,0.233666819
6.037539875,0.035017367,-0.102930273,-0.185157931,0.214719157
6.047549875,0.057767165,-0.047894635,0.025218456,0.07916383
6.057559875,-0.135879607,-0.032154679,-0.26842696,0.302572675
6.067568875,0.019107568,-0.097953141,-0.099716077,0.141078748
6.077578875,0.001848086,-0.15130977,-0.329423359,0.362515946
6.087588875,0.043261977,-0.151932133,-0.071320828,0.173325221
6.097598875,0.025832231,-0.059234652,-0.017601289,0.066976515
6.107607875,0.00635247,-0.127638176,-0.420296692,0.439296218
6.117617875,0.116375598,-0.101791528,-0.156317124,0.219863226
6.127627875,0.027883124,-0.09944144,-0.049672682,0.114601239
6.137667875,-0.088710904,-0.133205073,-0.27336084,0.316763894
6.147677875,0.060060297,-0.137167767,-0.016245904,0.150619272
6.157687875,0.045080918,-0.070568748,-0.235704771,0.250137915
6.167697875,0.018934125,-0.000335228,-0.085318478,0.087394829
6.177706875,-0.180981886,-0.030691231,-0.375155602,0.417657899
6.187716875,0.102656057,-0.076771402,0.183451713,0.223800459
6.197726875,-0.066009017,-0.222725487,-0.383280893,0.448183083
6.207736875,0.218377644,-0.172880331,-0.157630994,0.320037395
6.217745875,0.198859766,-0.119481,-0.018661973,0.232742744
6.227755875,0.045982294,-0.016833074,-0.508705423,0.511056681
6.237765875,0.01378323,0.096732042,0.245759059,0.264470377
6.247775875,-0.152818077,0.107332715,-0.060894658,0.196422595
6.257815875,0.008199678,-0.112061797,-0.443396702,0.457411976
6.267825875,0.272195654,0.058082257,-0.14677213,0.314652317
6.277834875,0.157908627,0.282562512,0.150755838,0.357077065
6.287844875,-0.040832898,0.317314397,-0.245711696,0.403398053
6.297854875,-0.024835994,0.292785437,-0.115442163,0.315700858
6.307864875,-0.019825332,0.310164056,-0.008626397,0.310916709
6.317874875,-0.034747874,0.442723212,-0.035799578,0.445525383
6.327883875,0.003981945,0.405816866,-0.267159283,0.485877832
6.337893875,0.091057831,0.479379736,-0.031909425,0.488993529
6.347903875,-0.02163854,0.537738237,-0.037124557,0.539452381
6.357913875,-0.108990693,0.606358054,-0.19702544,0.646813794
6.367953875,-0.022524461,0.658025623,-0.05131458,0.660407645
6.377963875,0.052957392,0.606933639,-0.184430537,0.63654344
6.387972875,-0.005486566,0.709860897,-0.163692802,0.728510761
6.397982875,0.072137438,0.743832782,-0.111178374,0.75554725
6.407992875,0.002833899,0.686277907,-0.189880727,0.712067474
6.418002875,0.009555602,0.663327878,-0.112448974,0.672859536
6.428011875,0.018565211,0.61798791,-0.141583895,0.634271017
6.438021875,-0.018098179,0.530685216,-0.178741196,0.560270254
6.448031875,0.011810261,0.424809938,-0.095206119,0.435507946
6.458041875,-0.007597187,0.271421136,-0.11080766,0.293266923
6.468051875,-0.023987855,0.175611821,-0.153671259,0.234584281
6.478060875,0.085190716,0.02127789,-0.184529355,0.204355792
6.488101875,0.098723238,-0.043214706,-0.261077594,0.282445214
6.498110875,0.042099304,-0.027727113,-0.131711456,0.14102855
6.508120875,-0.078998834,-0.076166361,-0.030811903,0.113980278
6.518130875,-0.118091226,-0.122283716,-0.107246121,0.200998944
6.528140875,-0.017817672,-0.17182606,-0.130964767,0.216779691
6.538149875,0.07420896,-0.173448754,-0.225501965,0.294011183
6.548159875,0.086864253,-0.213287734,-0.132655197,0.265771438
6.558169875,-0.017363764,-0.186413748,-0.206428347,0.278683061
6.568179875,-0.008770166,-0.148843798,-0.116725627,0.189357503
6.578188875,-0.006012025,-0.156687619,-0.120723369,0.197892107
6.588198875,0.031542065,-0.167850337,-0.185647343,0.252256959
6.598208875,0.047805017,-0.173300399,-0.173790944,0.250043276
6.608248875,0.018492313,-0.168360159,-0.136498572,0.217529237
6.618258875,-0.019816387,-0.171591294,-0.130935531,0.216749567
6.628268875,-0.010663384,-0.180813285,-0.136434252,0.226762998
6.638278875,0.030847973,-0.209282099,-0.18162095,0.278813134
6.648287875,0.062292079,-0.20753338,-0.199746734,0.294701823
6.658297875,0.024282445,-0.189845333,-0.173418476,0.258272831
6.668307875,-0.034140503,-0.165380418,-0.115792996,0.204754181
6.678317875,-0.01405889,-0.130856666,-0.131073525,0.185745494
6.688326875,0.036128018,-0.092398762,-0.168522018,0.195556731
6.698336875,0.046516236,-0.055890282,-0.178279851,0.192538799
6.708346875,0.026795423,-0.014440357,-0.157038086,0.159960867
6.718356875,-0.00708032,0.016515662,-0.123967404,0.125262984
6.728396875,-0.001565592,0.02962373,-0.124578438,0.128061718
6.738406875,0.020784056,0.047631821,-0.149437875,0.158216453
6.748416875,0.023021511,0.064210961,-0.156027102,0.170286506
6.758425875,0.007832683,0.079914079,-0.145697996,0.166359601
6.768435875,-0.005838299,0.098265456,-0.132376869,0.164966121
6.778445875,-0.003526109,0.096315172,-0.12952986,0.161452874
6.788455875,0.006348888,0.084266399,-0.143733916,0.166735039
6.798464875,0.010764952,0.06348386,-0.150602641,0.163790232
6.808480125,0.004535073,0.051858755,-0.15358589,0.162168193
6.818490125,0.00344888,0.035275192,-0.147437543,0.151637934
6.828500125,0.001472941,0.01931021,-0.140091101,0.141423373
6.838509125,0.021112998,-0.014690161,-0.147862635,0.150083038
6.848550125,0.032320996,-0.029924332,-0.159682197,0.165645756
6.858559125,0.015336114,-0.034993356,-0.160272766,0.164763742
6.868569125,-0.003585028,-0.049887877,-0.134520459,0.143517966
6.878579125,0.001953317,-0.059681416,-0.136910216,0.149365638
6.888589125,0.018652846,-0.068387262,-0.156220061,0.171550149
6.898599125,0.036140315,-0.062716175,-0.161163297,0.176672152
6.908608125,0.017328626,-0.064942795,-0.152783652,0.166915225
6.918618125,0.005277267,-0.051559012,-0.141558167,0.150747789
6.928628125,0.007179449,-0.041619732,-0.133333474,0.139862653
6.938638125,0.019632456,-0.02852005,-0.151307815,0.155218818
6.948647125,0.024854193,-0.017352965,-0.152212379,0.155201368
6.958688125,0.005046101,-0.007371987,-0.134701138,0.134997058
6.968697125,0.002883436,0.011569502,-0.142338771,0.142837296
6.978707125,0.011784625,0.020590458,-0.148174877,0.150062115
6.988717125,0.024971338,0.00778237,-0.172411585,0.174384311
6.998727125,0.022985734,-0.022883554,-0.200978742,0.203579114
7.008736125,0.039112665,-0.037087683,-0.106390089,0.119265032
7.018746125,-0.063889602,-0.103040968,-0.193194344,0.228086337
7.028756125,-0.191987661,-0.475892018,-0.085315554,0.520203055
7.038766125,0.186737885,-0.592589542,-0.054217722,0.623676971
7.048776125,0.212113449,-0.68059456,-0.521835346,0.88346658
7.058785125,0.16538484,-0.770764034,-0.236439766,0.823002493
7.068795125,-0.105690259,-0.74589758,-0.019645475,0.753604389
7.078835125,-0.154075667,-0.518874352,-0.108957601,0.552124681
7.088845125,-0.161342605,-0.24856426,0.072286204,0.305026102
7.098855125,-0.013698363,0.079584314,-0.138927505,0.16069275
7.108865125,0.03268398,0.374196988,-0.178738273,0.415979565
7.118874125,0.199609598,0.374665386,-0.134004149,0.445168794
7.128884125,0.030281981,0.168946745,-0.19250028,0.257907655
7.138894125,0.015225172,0.136453968,-0.057252427,0.148759308
7.148904125,0.165887993,0.138170309,-0.164366401,0.271341435
7.158913125,0.079995374,0.058617588,-0.160347025,0.188537662
7.168923125,-0.046428368,-0.146195439,-0.222564908,0.270303233
7.178933125,-0.128142489,-0.228381061,-0.177016268,0.316090439
7.188943125,-0.046868151,-0.643991867,-0.091184404,0.652101789
7.198983125,-0.03666862,-1.335584747,-0.223833754,1.354707626
7.208993125,-0.080497083,-1.520641521,0.103043143,1.526253027
7.219003125,0.006306291,-1.036297206,-0.170815296,1.050299735
7.229012125,0.145506719,-0.039183946,-0.022277307,0.15232815
7.239022125,-0.262603827,0.795346605,-0.193029453,0.859533223
7.249032125,-0.346278579,0.799321835,0.029552997,0.87160635
7.259042125,-0.301788267,0.211440014,-0.141262883,0.394636845
7.269051125,-0.185723028,-0.140663278,-0.166889475,0.286585585
7.279061125,0.056876424,-0.497920526,-0.255744349,0.562641049
7.289071125,0.100061044,-0.652311577,-0.229216116,0.698614797
7.299081125,0.022136686,-0.957062318,0.059184347,0.959146026
7.309090125,0.044287762,-1.020092086,-0.261077009,1.053902498
7.319131125,-0.025404941,-0.821988566,-0.070489354,0.825396489
7.329141125,-0.026693969,-0.528644172,0.072490271,0.534258429
7.339150125,0.070929951,-0.534804068,-0.053186274,0.5421026
7.349160125,0.169089472,-0.333381376,-0.236709323,0.442454172
7.359170125,0.159880418,-0.261166399,0.336107311,0.454684243
7.369180125,0.153871673,-0.604460413,0.026548698,0.624302584
7.379189125,0.055315857,-0.760599892,-0.270926059,0.809304003
7.389199125,-0.228226,-0.614001644,-0.060278361,0.657813504
7.399209125,-0.033941255,-0.390109637,0.086927047,0.401115755
7.409219125,0.114267878,-0.300394254,-0.288046122,0.431583624
7.419228125,-0.001242725,-0.294961222,-0.207983122,0.360916397
7.429238125,-0.167134382,-0.233961881,0.167905136,0.332962758
7.439278125,-0.000670689,-0.287795642,-0.149919101,0.324503495
7.449288125,-0.010274445,-0.345608415,-0.272302494,0.440112928
7.459298125,0.261466653,-0.258058165,-0.367455404,0.519598211
7.469308125,0.248367776,-0.184198366,0.109968,0.32818981
7.479318125,0.029280718,-0.736156338,-0.558675143,0.924608798
7.489327125,0.143357904,-0.63457763,-0.272716477,0.705417985
7.499337125,0.204837137,-0.531776635,-0.526160531,0.775622039
7.509347125,-0.145292181,-0.472820549,-0.32447603,0.591568917
7.519357125,-0.25546403,-0.284069065,-0.456203274,0.595044982
7.529366125,-0.247571038,-0.060437442,-0.256366493,0.361480126
7.539376125,-0.105472304,-0.144722955,-0.309525284,0.3575962
7.549416125,-0.589109024,-0.378414548,-0.416808828,0.814847599
7.559426125,-0.346819045,-0.463627995,-0.604834818,0.837292974
7.569436125,0.156585402,-0.411740936,-0.271257597,0.517329943
7.579446125,0.604775286,-0.497509978,-0.576414426,0.972380026
7.589455125,0.155797526,-0.286086428,-0.309734614,0.449503999
7.599465125,-0.154703494,-0.129452768,-0.636957666,0.668136407
7.609475125,0.322587964,-0.311889021,-0.22986925,0.50416032
7.619485125,0.348741207,-0.427542744,0.218689958,0.593496862
7.629495125,0.069728622,-0.115111266,0.271046512,0.302620052
7.639504125,0.162596193,0.214611361,-0.102487072,0.288095745
7.649514125,0.068349237,-0.119399084,-0.113740039,0.178506459
7.659524125,0.220051976,-0.241260394,-0.272721155,0.425448326
7.669564125,0.362701617,-0.272985723,-0.282097165,0.534464666
7.679574125,-0.244269919,-0.541038333,-0.188255786,0.622760397
7.689584125,0.151758763,-0.401674735,-0.131590419,0.449098378
7.699593125,0.231234063,-0.115195886,0.00802238,0.258464007
7.709603125,-0.008372103,0.054804125,0.06092097,0.082370801
7.719613125,0.164820602,0.351635323,0.395559461,0.55432889
7.729623125,0.196180444,0.410968811,0.259927447,0.524351417
7.739632125,0.27920272,0.323721191,0.179175645,0.463522901
7.749642125,0.143976366,0.044579812,0.887307374,0.900017183
7.759652125,0.074702437,-0.480899354,-0.186547814,0.521195482
7.769662125,0.392604242,-0.780452358,-0.690202412,1.113383736
7.779672125,-0.142639345,-0.607416765,0.89385684,1.090083098
7.789712125,-0.243745113,-0.36317886,0.212180253,0.486138894
7.799722125,-0.02381835,0.110070107,-0.016095046,0.113762
7.809736708,-0.771635342,0.583125129,0.476629352,1.078253939
7.819746708,-0.547858087,0.596143334,-0.690791811,1.064297272
7.829756708,0.078710667,-0.010854424,-0.201010902,0.21614479
7.839766708,-0.066188846,-0.477429872,-0.225173936,0.531999575
7.849775708,0.001648155,-0.229727766,-0.119877276,0.259129551
7.859785708,0.065584289,-0.089996561,-0.252690933,0.276140159
7.869795708,0.157946086,-0.140990037,-0.399901603,0.45248917
7.879805708,-0.022366527,-0.403953687,-1.342071648,1.401725776
7.889814708,-0.055998574,-0.585252748,0.087681338,0.594427991
7.899824708,-0.140724163,-0.339397174,-0.841688567,0.918386289
7.909865708,-0.010231001,-0.218971703,-0.588516408,0.628016594
7.919874708,-0.279346945,-0.21607015,-0.459740839,0.579726371
7.929884708,-0.21081089,-0.296121566,-1.141125065,1.197620819
7.939894708,-0.044088764,-0.477563445,-0.61636962,0.780975141
7.949904708,-0.256357557,-0.433200839,0.705501652,0.866668763
7.959913708,0.050564912,-0.38868668,-0.538620363,0.666142658
7.969923708,0.052673126,-0.624884628,-0.573013685,0.849470388
7.979933708,0.08037981,-0.258115943,0.257092132,0.373069857
7.989943708,0.024326893,0.097301305,-0.193429987,0.217886442
7.999952708,0.11212343,0.081663804,-1.100689815,1.10939565
8.009962708,0.100916072,-0.270842718,-0.224625467,0.366055231
8.019972708,-0.169567664,-0.550233079,1.203876799,1.334477044
8.030012708,0.046820209,-0.160962408,0.243607868,0.295712398
8.040022708,-0.011677666,0.14888736,-0.382240089,0.410379457
8.050032708,0.377557127,0.035612339,0.452189745,0.590163696
8.060042708,0.488861983,0.112349882,0.740099627,0.894067107
8.070051708,0.064585375,0.007538386,0.828620625,0.831167996
8.080061708,0.226362949,-0.287764871,-0.425438733,0.561290407
8.090071708,0.095767626,-0.376314447,-0.106432189,0.402631112
8.100081708,-0.522930529,-0.263020441,1.107215892,1.252422901
8.110090708,-0.120894966,0.197896894,-0.051249676,0.237498006
8.120100708,0.013371673,0.790524041,0.733137347,1.078238114
8.130110708,-0.33641323,-0.111919161,-0.98383321,1.045766487
8.140120708,0.030939845,-0.734508519,0.101522866,0.742136733
8.150160708,-0.120234121,-0.456778859,0.18821427,0.508456273
8.160170708,-0.201341087,-0.240121922,-0.582628847,0.661553584
8.170179708,-0.245580262,-0.357098158,-1.391380633,1.457315623
8.180189708,-0.166590573,-0.785273315,-2.446072156,2.574427235
8.190199708,-0.170037104,-0.561052694,0.601466821,0.839913733
8.200209708,-0.232613056,-0.299166759,-0.57806451,0.691207756
8.210219708,-0.20318877,-0.482061781,-0.839485336,0.989143501
8.220228708,0.386555699,-0.652799966,-1.013016078,1.265612373
8.230238708,0.001508125,-0.801197987,-0.505294157,0.947228945
8.240248708,0.058989197,-0.904705983,-0.436687607,1.006314418
8.250258708,-0.161739723,-0.628857957,-0.044349961,0.650837143
8.260298708,-0.033088279,0.036138369,0.183956328,0.190370025
8.270308708,-0.025748141,0.204129862,-0.396045949,0.446300752
8.280317708,-0.42788265,-0.223734772,-0.80528848,0.938951727
8.290327708,0.459285706,-0.202416445,0.096887779,0.51117807
8.300337708,0.342616797,0.258642631,0.616649117,0.751357713
8.310347708,0.347481571,0.806778131,1.495633564,1.734518421
8.320356708,0.517989888,1.120959407,1.946857933,2.305454256
8.330366708,0.339819782,0.433310474,-0.438176892,0.703728953
8.340376708,-0.115736059,-0.261870732,-0.16055811,0.328252986
8.350386708,-0.441192813,-0.242771734,1.059053546,1.172682236
8.360396708,-0.077249174,0.472116142,0.569308305,0.743621565
8.370405708,-0.077736485,0.644831965,-0.000510462,0.649500951
8.380446708,0.05039833,0.207907145,-0.415304924,0.467165444
8.390455708,0.424562309,-0.018458783,0.070574723,0.430783788
8.400465708,0.189987146,-0.578525454,-1.953199823,2.045916999
8.410475708,-0.331873635,-0.710485965,-0.246597549,0.822034529
8.420485708,-0.298209076,-0.55787159,-1.898929476,2.001520052
8.430494708,-0.225399858,-0.386619068,-1.010212339,1.104901973
8.440504708,-0.693135302,-0.253032849,-0.046060272,0.739313004
8.450514708,-0.799497324,-0.045993403,-1.982421868,2.138061699
8.460524708,0.478465085,0.012201129,-0.397302516,0.622034561
8.470533708,-0.060528714,-0.094791369,0.28540552,0.306766099
8.480543708,0.510042608,-0.182890161,-0.306504613,0.62252498
8.490553708,0.288488391,-0.525566746,0.482080126,0.769316063
8.500593708,0.024058561,-0.62722863,-1.203461062,1.357318347
8.510603708,0.668441195,-0.442467506,-1.211991565,1.453105185
8.520613708,0.205564001,-0.63685037,0.958024769,1.16860875
8.530623708,-0.097915975,-0.149905351,1.615172287,1.625066358
8.540632708,-0.058750872,0.094045676,-0.721499049,0.729970638
8.550642708,0.788868475,0.665125166,2.943526366,3.119142899
8.560652708,0.198689831,0.333851163,1.08109638,1.148783544
8.570662708,-0.766504483,-0.456045837,-2.102054147,2.283448831
8.580671708,-0.608605797,-0.471022932,3.128880179,3.222135129
8.590681708,0.102222796,0.113581762,0.525726668,0.547484106
8.600691708,-0.170231013,-0.057857861,-2.263344913,2.270474911
8.610701708,-0.419519158,-0.201152405,-0.042491131,0.467187446
8.620741708,0.52033305,-0.073559773,0.457667416,0.696862244
8.630751708,0.212079754,-0.604148939,-2.37934607,2.463992996
8.640761708,-0.265171668,-0.979502908,-0.878009716,1.341880405
8.650770708,-0.620881039,-0.934210595,-2.077111679,2.360643054
8.660780708,-0.868604616,-0.909027807,-1.037936912,1.63037375
8.670790708,-0.037107097,-0.38917971,0.026490811,0.391841226
8.680800708,0.326591626,-0.509883491,-0.830774154,1.028021867
8.690809708,-0.012146184,-0.835812334,-0.158970591,0.85088274
8.700819708,0.733909472,-0.051207713,-0.5697907,0.930541125
8.710829708,1.033543679,0.347570522,0.251918516,1.119142861
8.720839708,0.520834156,0.350694324,0.170177949,0.650549968
8.730848708,0.824775276,0.283866532,0.264429803,0.911459042
8.740889708,0.561289579,0.336444111,0.951833153,1.155087435
8.750898708,0.208852164,0.522773495,2.08334598,2.15806437
8.760908708,0.325112682,0.524748173,0.017261565,0.61754098
8.770918708,-0.893524426,0.087127442,1.640069731,1.869707414
8.780928708,-0.27839416,0.461932485,3.137994234,3.18400577
8.790938708,0.453464072,0.701067343,-2.168546929,2.323729947
8.800947708,-1.219450273,-0.376603519,-3.250867131,3.492424127
8.810997708,-1.36666796,0.203620953,3.898212376,4.135855719
8.821007708,-0.237896271,0.215366657,-3.176145562,3.192315471
8.831017708,0.071854779,-0.766151092,-2.844308472,2.94656432
8.841026708,-0.237168201,-0.741179754,-1.147050049,1.386116877
8.851036708,0.083723339,-0.495449346,-1.135290129,1.241516544
8.861076708,-0.417831871,-0.203530211,-0.741514653,0.875129705
8.871086708,1.034060208,0.128902317,0.426471351,1.125954765
8.881096708,1.288570209,-0.042581731,0.481020611,1.376084015
8.891106708,-0.189758136,-0.4015029,-1.738821017,1.794634018
8.901115708,-0.008822464,-0.371631376,-1.319162841,1.370539426
8.911125708,0.2241982,-0.296037494,1.649734009,1.691013108
8.921135708,-0.60305456,-0.283643278,0.24075852,0.708585193
8.931145708,-0.658325293,-0.272250509,1.751405395,1.890749425
8.941155708,-0.072888782,0.265658175,3.071435378,3.083764311
8.951164708,0.594319806,0.141402695,-0.455615628,0.762099964
8.961174708,0.286511831,0.117512407,-0.190351428,0.363499465
8.971184708,0.489630855,0.670969019,3.146788446,3.254568378
8.981224708,-0.220233696,0.873447134,-0.111153815,0.90761663
8.991234708,-0.200383678,0.266596032,-3.583012953,3.598500922
9.001244708,-0.369962471,-0.117432062,0.147118285,0.415097951
9.011253708,-0.421019408,-0.513777956,-1.41540041,1.563516373
9.021263708,-0.232727369,-0.724924787,-1.645830408,1.813404452
9.031273708,0.364325024,-0.619725556,-1.207376942,1.405187378
9.041283708,-0.461148995,-0.623407694,-1.802497196,1.962216015
9.051292708,0.650013256,-0.20822505,-1.555182193,1.698371737
9.061302708,2.063417646,0.107561058,0.965406294,2.280629535
9.071312708,0.62699613,-0.179121064,1.72955318,1.84839463
9.081322708,-1.170155614,-0.750874145,-1.859533861,2.321840288
9.091362708,0.343659794,-0.176489525,-1.944248321,1.982259352
9.101372708,0.615213552,0.344587967,1.515531054,1.671545081
9.111382708,-0.649142825,0.430722277,1.667135907,1.840176682
9.121391708,-0.096128372,1.111781764,4.658483142,4.790278128
9.131401708,-0.215892303,0.920695779,0.012604843,0.945753185
9.141411708,-0.409643174,0.641753772,-1.628498091,1.797682249
9.151421708,0.539032007,0.88555891,3.082390721,3.252061292
9.161430708,0.593174556,1.197889688,0.84114653,1.579342662
9.171440708,-0.433351295,0.296982751,-3.554431763,3.59304568
9.181450708,-0.644069488,0.133651206,-1.26627653,1.426935318
9.191460708,-0.318462351,0.168605414,-0.145916097,0.388764147
9.201469708,0.519077616,-0.092944014,-2.055759401,2.122316394
9.211510708,0.49796544,-0.302234318,-1.037845695,1.190142365
9.221520708,-0.865067928,-0.367957753,-1.257472377,1.570022996
9.231529708,-0.464602872,-0.250776079,-2.135011978,2.199322763
9.241539708,1.023147914,0.191702829,0.08465131,1.044388565
9.251549708,0.090767973,0.572119098,0.715529627,0.920620298
9.261559708,-1.15078832,0.50135423,0.76272075,1.468813386
9.271568708,-0.529324715,0.8077916,-0.738078829,1.215513176
9.281578708,0.089738388,0.381679523,-0.346248722,0.523087387
9.291588708,0.528129179,0.023439998,0.789922582,0.950498579
9.301598708,0.475329626,0.153227373,1.325178457,1.416162005
9.311607708,0.247343946,0.69397065,2.315172878,2.42956781
9.321617708,0.709583374,0.985088899,0.276673872,1.245173536
9.331657708,0.142046346,0.641044724,-0.207506574,0.688603282
9.341667708,-0.230232362,0.433541731,1.783109583,1.849444554
9.351677708,0.473144009,1.341778264,1.094235073,1.79487731
9.361687708,-0.260422761,1.146934201,-2.438038666,2.706900555
9.371697708,-0.642362832,-0.685689385,-4.953497976,5.041819328
9.381706708,-0.828033272,1.830645692,5.34728807,5.712301852
9.391716708,-0.661930686,1.640111246,4.776230863,5.093181558
9.401726708,0.188575939,-0.630409662,-10.03677023,10.05831665
9.411736708,0.772629295,-1.245636736,-6.2843418,6.453024002
9.421745708,1.459409917,-1.399318228,10.47340872,10.66678297
9.431755708,-1.110580453,-0.860862391,-0.889590127,1.663082557
9.441765708,-1.18428753,-0.763553832,-7.933660657,8.057823703
9.451805708,-0.561294257,-1.277742043,-0.065306967,1.397118811
9.461815708,0.997485654,-0.080326783,3.675890712,3.809672236
9.471825708,-0.264613826,-0.252612617,-0.742888164,0.828079969
9.481834708,-0.793431642,-0.466010443,-1.902644212,2.113469778
9.491844708,1.287329869,0.106872557,0.432443113,1.36222134
9.501854708,0.352719361,0.014702294,-0.539593924,0.644816802
9.511864708,0.961968059,0.470512872,-0.44878608,1.16110889
9.521874708,1.512564908,0.465045689,3.230596004,3.597342162
9.531883708,-0.091590612,0.15396468,1.287604249,1.300007179
9.541893708,0.018899786,0.125489699,-0.826263612,0.835952405
9.551903708,0.563449029,0.377973704,1.769984922,1.895569982
9.561913708,-0.086853235,0.583148189,1.660470666,1.762035223
9.571953708,-0.59043879,0.417573863,-1.414498769,1.588644914
9.581963708,-0.128075977,0.200724863,-0.998271739,1.026275008
9.591972708,-0.32490686,0.454135406,1.511871282,1.611694204
9.601982708,0.068413008,0.274898439,-1.329045805,1.358901116
9.611992708,-0.003459487,0.414596753,-1.819427809,1.866070734
9.622002708,-0.560259812,0.582571325,-0.426461996,0.913865548
9.632011708,-0.08984753,-0.545525632,-1.102447488,1.233313122
9.642021708,-0.683052071,-1.011372061,0.051214008,1.221497627
9.652031708,-0.716132548,-1.00863381,-2.567446319,2.849906769
9.662041708,0.410758129,-0.291988242,-0.0705718,0.508880883
9.672051708,0.895880635,-0.137871333,0.689006656,1.138569624
9.682060708,0.15636467,-0.519673191,-1.597047672,1.686733946
9.692101708,0.189284128,-0.377539512,-1.361951596,1.425930123
9.702110708,0.880401958,0.08874765,0.457306058,0.996048485
9.712120708,0.614580372,0.397812978,0.406760387,0.837507141
9.722130708,0.095939634,0.521881868,0.901167614,1.045785908
9.732140708,-0.237574747,0.487072114,1.30163055,1.409937266
9.742149708,-0.000197565,0.635431543,0.351063904,0.725960846
9.752159708,0.411783073,0.518019343,0.610044687,0.900035476
9.762169708,0.546454755,0.321247051,0.528611684,0.825374327
9.772179708,0.199555347,0.808371205,2.617540001,2.746780296
9.782188708,0.584615073,0.911552854,0.242519116,1.109738217
9.792198708,0.040330686,-0.102271383,-4.311830962,4.313232227
9.802208708,-0.745852191,0.647725606,3.509680098,3.646052433
9.812256083,-0.360391529,0.848092876,-0.244718254,0.953430965
9.822266083,-0.343256409,0.527729302,-4.366014771,4.411168571
9.832276083,-0.940543422,0.90915206,1.026503851,1.662795704
9.842286083,-0.175608386,0.605342064,-0.391300934,0.741885261
9.852295083,0.130298623,0.109221841,-0.925149384,0.940642613
9.862305083,-0.621201613,-0.32136659,-0.82029302,1.077983566
9.872315083,-0.572225919,-0.593207264,-1.917607237,2.087236181
9.882325083,0.180123423,-0.485313125,-0.822590391,0.971919867
9.892334083,0.277837962,-0.474197422,1.017541239,1.156480566
9.902344083,-0.500807808,-0.424100671,0.072408995,0.660237005
9.912354083,-0.80925567,0.098622035,-2.386332908,2.521746575
9.922364083,-0.384454356,0.306916549,0.391904367,0.62896101
9.932404083,-0.211761867,0.218651878,0.911523618,0.961003141
9.942414083,-0.027279883,0.257111684,-0.513310105,0.574750271
9.952423083,0.385393638,0.50426216,0.671315321,0.923835939
9.962433083,0.543625506,0.629161501,2.721070801,2.845276645
9.972443083,0.499060441,0.804168592,0.648057436,1.147051388
9.982453083,0.843077354,0.788920077,-0.87253146,1.447233727
9.992463083,0.870857548,0.804763035,0.421091328,1.258314078
10.00247208,0.929565786,0.813250633,0.984524351,1.579480086
10.01248208,0.793283488,1.095788094,1.43035174,1.968744864
10.02249208,0.171683388,0.648555765,-1.593348724,1.728831953
10.03250208,-0.241539744,0.50803884,-2.701225936,2.759178586
10.04254208,-0.613708698,0.993547335,2.210153376,2.499710508
10.05255208,-0.285613662,0.80281942,-0.662988301,1.079651644
10.06256108,-0.392071707,0.385806854,-1.630165717,1.720467209
10.07257108,-0.690182166,0.675528167,1.991648775,2.213448569
10.08258108,-0.290661801,0.427212925,-2.236336039,2.295254679
10.09259108,-0.231368951,0.254021339,-1.03579917,1.09130122
10.10260108,-0.767359273,0.040642918,0.478878191,0.905437145
10.11261008,-1.222403555,0.129802212,-1.111934595,1.657563758
10.12262008,-0.969385179,0.027874974,-2.007867782,2.229802159
10.13263008,-0.256437299,-0.281881659,0.548423805,0.667821853
10.14264008,0.489931037,-0.021135181,0.747505125,0.894003931
10.15264908,0.797099016,0.246991688,-1.297956744,1.543069488
10.16269008,0.945614639,-0.159906346,0.41511372,1.045024634
10.17269908,0.996104177,0.029259357,0.757808504,1.251939843
10.18270908,-0.056175571,0.224322801,-2.352942967,2.364279387
10.19271908,0.63293946,0.562016206,-1.120074504,1.403937844
10.20272908,0.561675715,0.45815332,2.11033088,2.231340516
10.21273808,-0.459056349,-0.077835778,0.016924181,0.465915838
10.22274808,0.011741474,0.275659673,-0.942203373,0.9817705
10.23275808,0.669666918,0.507560538,-0.02898991,0.840780527
10.24276808,0.177071469,0.584511175,0.994948767,1.167446216
10.25277808,-0.068149819,0.804139794,0.194531602,0.830137188
10.26278708,-0.117092732,1.195617753,0.852200106,1.472907852
10.27279708,-0.016891992,0.934455374,-0.872366568,1.278481762
10.28283708,0.560840111,0.922376488,1.01691968,1.483052815
10.29284708,-0.180019763,0.828766513,1.009334671,1.318338927
10.30285708,0.32620962,0.825951663,-1.559019721,1.794199363
10.31286708,0.396230575,0.830148575,-0.809361066,1.225239022
10.32287608,-0.363532836,0.928326323,0.835033851,1.300471997
10.33288608,-0.17154744,1.051818275,0.678833086,1.26355236
10.34289608,-0.122122205,1.263656685,-0.05963049,1.270943683
10.35290608,-0.222328461,1.182478621,-1.18478564,1.688609678
10.36291508,-0.098523153,1.122117302,-0.131302151,1.13406098
10.37292508,0.182994717,1.031321957,0.034438931,1.047997178
10.38293508,0.180610186,0.864879209,-0.411247541,0.97455663
10.39294508,-0.027364554,1.028898943,0.414465848,1.109578205
10.40298508,-0.033508913,0.953675391,-0.33611082,1.011726288
10.41299508,0.009644238,0.896002695,-0.731602453,1.156786925
10.42300508,0.093023007,0.850215854,-0.395933683,0.942488068
10.43301408,0.233552996,0.89014744,0.395175884,1.001535544
10.44302408,0.061642649,0.818827562,-0.666737536,1.057741619
10.45303408,0.103378754,0.628458885,-0.209453112,0.670461291
10.46304408,-0.054062497,0.787608839,-0.070359546,0.792591258
10.47305308,-0.074722117,0.758236228,-0.61730459,0.980597027
10.48306308,0.131910097,0.556752871,0.489980299,0.753295909
10.49307308,-0.066066666,0.548728006,-0.561905145,0.788165351
10.50308308,-0.01419688,0.672837424,-0.313124245,0.742265817
10.51309208,0.019388033,0.647166978,0.012397851,0.647576019
10.52313308,0.188517723,0.397374729,-0.472946191,0.645851149
10.53314208,0.151579701,0.338121604,0.173256508,0.409048215
10.54315208,-0.210351701,0.503349044,-0.474895068,0.723279631
10.55316208,-0.038742728,0.579179647,0.005021589,0.580495719
10.56317208,0.194542822,0.502588943,-0.131613808,0.55476549
10.57318208,0.18410165,0.347866354,-0.341032421,0.520775892
10.58319108,0.00180583,0.30473678,-0.006179338,0.304804774
10.59320108,-0.021977756,0.400456358,-0.270243105,0.483611055
10.60321108,-0.008667725,0.386340631,-0.064134015,0.391723608
10.61322108,0.068186488,0.289643582,-0.194366126,0.355416646
10.62323008,0.119115201,0.244284665,-0.1789745,0.325415581
10.63324008,0.03744387,0.263279107,-0.123311346,0.29312731
10.64328008,-0.028986804,0.294009844,-0.199532141,0.356503995
10.65329008,-0.008409575,0.300058605,-0.115290136,0.321555132
10.66330008,0.074563443,0.30739624,-0.219206268,0.384842231
10.67331008,0.149405094,0.172200574,-0.076598525,0.240504166
10.68331908,0.019496796,0.052815396,-0.229764,0.236560958
10.69332908,-0.018947327,0.031733397,-0.084754221,0.092462358
10.70333908,-0.06440433,0.196611822,-0.150369921,0.255764031
10.71334908,-0.091113388,0.2775107,-0.244290238,0.380777571
10.72335908,0.041030045,0.375097386,-0.133576718,0.400280218
10.73336808,0.196605756,0.422281748,-0.260864756,0.533878375
10.74337808,0.210645176,0.1311197,0.071574597,0.25823766
10.75338808,0.019144693,0.09086173,-0.276972665,0.292123656
10.76342808,0.024014675,0.14285888,-0.273359671,0.309371741
10.77343808,-0.084017417,0.188052741,-0.12196941,0.239372715
10.78344808,-0.240928418,0.318693207,-0.292322191,0.49503952
10.79345708,0.136369595,0.443970679,0.203296579,0.506987307
10.80346708,0.198162778,0.28534617,-0.260066611,0.433964936
10.81348308,0.062901929,0.2577191,-0.409851226,0.488214926
10.82349308,-0.018827678,0.282001837,-0.222335697,0.359600723
10.83350208,-0.045247331,0.360494403,0.089768209,0.374248403
10.84351208,0.106980511,0.467202909,-0.536609505,0.719495066
10.85352208,0.267504854,0.405155729,0.084204583,0.492747829
10.86353208,-0.013134112,0.48602009,-0.722805317,0.87111168
10.87354208,-0.102314936,0.48133541,0.442504417,0.661787188
10.88358208,0.219824337,0.448562717,-0.158542575,0.524086823
10.89359208,0.152736381,0.379939502,-0.741917526,0.847421998
10.90360108,-0.17601252,0.53441055,0.02927467,0.563411084
10.91361108,0.012175892,0.546700557,0.344075897,0.646078923
10.92362108,0.037909993,0.560076538,-0.751211091,0.937785156
10.93363108,0.056297011,0.571088599,-0.327620662,0.660792585
10.94364008,-0.129224599,0.647119981,-0.312804403,0.730280673
10.95365008,0.180276072,0.629177361,-0.081493814,0.659548979
10.96366008,0.297772838,0.511097848,0.652505413,0.880711636
10.97367008,0.057880345,0.273157887,-0.716140076,0.768649448
10.98367908,0.081443638,0.104653082,-0.172241431,0.217376274
10.99368908,-0.282893464,0.150821125,0.264378932,0.415538138
11.00373008,-0.617955166,-0.100089221,-0.388567945,0.736798132
11.01373908,-0.249182073,-0.257374626,0.02914837,0.35942041
11.02374908,-0.121872383,-0.177222857,0.761068327,0.790876613
11.03375908,-0.047971375,0.024691752,-0.198842754,0.206032464
11.04376908,-0.047670239,-0.079580413,-1.28202776,1.285379582
11.05377808,-0.052256265,-0.205758914,0.570074875,0.608319662
11.06378808,-0.036348896,0.049178044,-0.141711364,0.154343231
11.07379808,-0.104036877,-0.189721902,-0.507602053,0.551795176
11.08380808,0.003646854,-0.153355839,0.531378002,0.553076752
11.09381708,0.060049598,-0.098068752,0.397321812,0.41362792
11.10382708,0.302410063,-0.414893499,-0.605164601,0.793607369
11.11383708,0.274190907,-0.621053094,-0.252235435,0.724230842
11.12387708,-0.029223753,-0.447668897,-0.02985296,0.44961391
11.13388708,0.149413079,-0.358262338,0.416705917,0.569490994
11.14389708,-0.278163597,-0.409018217,-0.26170617,0.559607905
11.15390708,-0.24845214,-0.620161612,-0.174971496,0.690611263
11.16391608,-0.037864814,-0.587225745,0.268588927,0.646844519
11.17392608,0.003467673,-0.845718979,0.068210694,0.848472342
11.18393608,0.049149667,-0.694314905,-0.886239672,1.126902673
11.19394608,0.462761072,-0.516855747,-0.584978258,0.907461975
11.20395508,0.106483663,-0.84117869,0.152050411,0.861417254
11.21396508,-0.113722716,-0.68294419,-0.083145652,0.69732261
11.22397508,0.050163811,-0.454740227,-0.406351082,0.611903819
11.23401508,0.080797228,-0.473360064,-0.278497034,0.555120294
11.24402508,0.031128365,-0.618447428,0.021486179,0.61960298
11.25403508,-0.121377453,-0.716653827,-0.164250042,0.745186735
11.26404408,-0.06149915,-0.622847165,-0.237363042,0.669374298
11.27405408,0.024705199,-0.629803598,-0.156928158,0.649530111
11.28406408,0.046433215,-0.6942041,-0.248526546,0.738810409
11.29407408,0.050082078,-0.706820345,-0.249582553,0.751262048
11.30408408,0.003499869,-0.679173101,-0.162774205,0.698415201
11.31409308,-0.020103915,-0.56661727,-0.181048508,0.595178847
11.32410308,-0.024754973,-0.469628006,-0.156360978,0.495592603
11.33411308,0.018954078,-0.361537144,-0.152061521,0.392671708
11.34412308,0.051198056,-0.316550129,-0.208717532,0.382607153
11.35416308,0.031907945,-0.357845615,-0.206541198,0.414404232
11.36417308,0.040695287,-0.301434748,-0.1518633,0.339972757
11.37418208,0.051608841,-0.155738031,-0.131948853,0.210542885
11.38419208,0.05732824,-0.109749579,-0.160563957,0.202761637
11.39420208,0.024623118,-0.100445015,-0.226270289,0.24878453
11.40421208,0.021127817,-0.131702576,-0.12596072,0.18346132
11.41422108,0.013849642,-0.176356007,-0.136998509,0.223745045
11.42423108,0.003579958,-0.246978971,-0.242157758,0.345907224
11.43424108,-0.024108618,-0.331712032,-0.203563212,0.389938558
11.44425108,0.022998287,-0.305889869,-0.08746616,0.318979408
11.45426108,0.176744025,-0.144548744,-0.12597066,0.260770775
11.46427008,0.111804154,-0.162362195,-0.396630086,0.442918815
11.47431108,-0.038959103,-0.307006596,-0.309867346,0.437936792
11.48432008,-0.023308938,-0.329866359,0.188310165,0.380546764
11.49433008,0.032727085,-0.01150986,0.295931093,0.297957632
11.50434008,-0.044214416,0.018368261,-0.59322634,0.595155273
11.51435008,0.173997076,0.082419748,-0.232204043,0.301640042
11.52435908,0.035082581,0.121774543,0.04384944,0.134099217
11.53436908,-0.061771914,0.068071585,-0.2481915,0.26466683
11.54437908,0.090384588,0.191057077,-0.039873333,0.215086176
11.55438908,0.021982753,0.17219142,-0.148870111,0.228681954
11.56439808,-0.022221978,0.10823843,-0.299234769,0.318984045
11.57440808,0.114702089,0.256630312,0.071725456,0.290103821
11.58441808,0.041057714,0.452898829,0.098591073,0.465320626
11.59445808,-0.307654321,0.341781595,-0.447824214,0.641881895
11.60446808,-0.083711151,0.298094928,-0.01174998,0.309848681
11.61447808,-0.078748007,0.355615596,0.150747651,0.39419355
11.62448808,0.096513365,0.467221511,-0.436699886,0.646774737
11.63449708,0.228799191,0.562646389,-0.107853647,0.616889324
11.64450708,0.007874089,0.570516851,0.00185766,0.57057421
11.65451708,-0.025986296,0.563085406,-0.295428817,0.636410754
11.66452708,0.106697524,0.536745855,-0.115037536,0.559208467
11.67453608,0.01859728,0.493799153,-0.114725295,0.507292179
11.68454608,0.009071791,0.468683132,-0.170840439,0.498931489
11.69455608,-0.036327746,0.398446962,-0.114372123,0.416125786
11.70456608,-0.01018236,0.3052388,-0.115969582,0.326685398
11.71460608,0.036522988,0.215377767,-0.187320231,0.287767927
11.72461608,0.035667796,0.165226783,-0.147764987,0.224514081
11.73462608,0.010544458,0.088543263,-0.139638526,0.165680455
11.74463508,0.015675855,-0.025543274,-0.14482793,0.147896317
11.75464508,0.031364273,-0.127914,-0.134155592,0.187998489
11.76465508,0.033395495,-0.228943892,-0.136832448,0.268800453
11.77466508,0.020081522,-0.271501882,-0.203141043,0.339680472
11.78467408,-0.007887291,-0.337702614,-0.140263594,0.365758309
11.79468408,-0.0490649,-0.334449735,-0.120799382,0.358965849
11.80469408,0.034810302,-0.312690857,-0.186379414,0.365683764
11.81472283,0.084082714,-0.249369842,-0.216804816,0.340968546
11.82473183,0.034211008,-0.139438881,-0.154730775,0.211081044
11.83477283,-0.048119351,-0.035406828,-0.104908404,0.120726504
11.84478183,-0.018751089,0.019592987,-0.113738285,0.11692684
11.85479183,0.01636494,0.065111304,-0.155512547,0.169385494
11.86480183,0.050203572,0.124029594,-0.153592322,0.203701596
11.87481183,0.049594777,0.170673391,-0.168724916,0.245065594
11.88482183,-0.022960463,0.197480463,-0.130090023,0.237590257
11.89483083,-0.025705347,0.204696292,-0.074981185,0.219507437
11.90484083,0.012723971,0.160967908,-0.153999873,0.22313343
11.91485083,0.062871273,0.081354605,-0.177339034,0.204989028
11.92486083,0.017681587,0.01812143,-0.146639398,0.148809065
11.93486983,-0.010196813,-0.033143567,-0.130156682,0.134696818
11.94487983,0.019868236,-0.060619327,-0.154543664,0.167192086
11.95491983,0.037967269,-0.06899571,-0.163975223,0.181906006
11.96492983,0.011418443,-0.082152667,-0.144668886,0.166758892
11.97493983,0.010531923,-0.078474312,-0.144522121,0.164790116
11.98494983,0.007067922,-0.074162109,-0.155304387,0.172248154
11.99495883,0.011579387,-0.041848454,-0.145585145,0.15192238
12.00496883,0.020582555,-0.010657556,-0.163708005,0.165340666
12.01497883,0.008635333,0.00437343,-0.148445018,0.148760274
12.02498883,0.002056904,0.02618596,-0.127792068,0.130463588
12.03499883,0.013277163,0.038280095,-0.151295536,0.156626906
12.04500783,0.031545683,0.048003073,-0.15773332,0.167866689
12.05501783,0.012932296,0.056260392,-0.149499271,0.16025763
12.06502783,0.007729809,0.060573472,-0.135423853,0.148554756
12.07506783,0.02360552,0.036725242,-0.152929248,0.159038734
12.08507783,0.013342423,0.021261234,-0.151425928,0.153492254
12.09508783,0.011202388,0.011942851,-0.142590201,0.143527317
12.10509683,0.008174819,-0.002948326,-0.143932722,0.144194829
12.11510683,0.016548516,-0.008937017,-0.145276996,0.146489349
12.12511683,0.011752858,-0.009816931,-0.144529138,0.145338135
12.13512683,0.011380655,-0.01420476,-0.15006879,0.151168569
12.14513583,0.01875573,-0.023147021,-0.142885485,0.145958295
12.15514583,0.010026705,-0.013768293,-0.147525251,0.14850522
12.16515583,0.015699235,0.000187513,-0.145282259,0.146128149
12.17516583,0.020845351,0.006744,-0.146184484,0.147817163
12.18517583,0.01675833,0.005185982,-0.148580673,0.149612675
12.19521583,0.011893173,0.006605188,-0.143342153,0.14398628
12.20522583,0.021123313,0.024532816,-0.146185069,0.149726844
12.21523483,0.016729569,0.025004535,-0.143637437,0.14675428
12.22524483,0.006311238,0.026704033,-0.154861168,0.157273387
12.23525483,0.020744267,0.013821795,-0.149020969,0.151091415
12.24526483,0.019867806,0.013143243,-0.143629251,0.145591333
12.25527383,0.01321838,0.008664701,-0.151113102,0.151937396
12.26528383,0.020429815,0.000367127,-0.14497528,0.146408142
12.27529383,0.022347611,-0.000678729,-0.146620687,0.148315549
12.28530383,0.012881279,0.005121882,-0.146021932,0.146678443
12.29531283,0.011742187,-0.003409141,-0.138689523,0.139227458
12.30532283,0.01686623,0.002953232,-0.151263376,0.152229433
12.31536383,0.008403417,0.007128149,-0.138239288,0.138677787
12.32537283,0.006853375,0.010579993,-0.154103953,0.154618671
12.33538283,0.010176887,0.006092219,-0.150209708,0.150677272
12.34539283,0.014453221,0.019582234,-0.130898693,0.133142132
12.35540283,0.02168249,0.013725918,-0.152753831,0.154894364
12.36541183,0.014390747,0.001523666,-0.145267641,0.145986652
12.37542183,0.01169984,-0.005457988,-0.142870283,0.143452409
12.38543183,0.011355421,0.00505902,-0.150653511,0.151165537
12.39544183,0.013354355,0.008970616,-0.148257907,0.149128192
12.40545083,0.011738322,0.004860749,-0.153049116,0.153575541
12.41546083,0.016233323,-0.001558242,-0.150654096,0.151534173
12.42547083,0.014473458,-0.004714199,-0.143769,0.144572577
12.43551083,0.009430015,0.002780698,-0.157538608,0.157845083
12.44552083,0.017020368,0.015834877,-0.147210671,0.149034955
12.45553083,0.011534483,0.01168043,-0.149304559,0.150204287
12.46554083,0.016842274,0.009111977,-0.149154285,0.150378493
12.47554983,0.020469467,0.005857074,-0.141072264,0.142669857
12.48555983,0.014091972,0.003340459,-0.14511152,0.145832423
12.49556983,0.01819913,-0.002149436,-0.139571283,0.140769214
12.50557983,0.012966356,0.004732718,-0.148253814,0.148894991
12.51558883,0.013174033,0.009469657,-0.144660115,0.145567093
12.52559883,0.009630163,0.005940342,-0.15408992,0.154504793
12.53560883,0.015766597,0.000765702,-0.162320461,0.163086185
12.54564883,0.006499217,-0.002345428,-0.146155248,0.14631848
12.55565883,0.008699442,-0.001879569,-0.155285676,0.155540522
12.56566883,0.007519401,0.000473136,-0.152142212,0.152328651
12.57567783,0.013115816,0.008085968,-0.139271906,0.14012163
12.58568783,0.013182301,0.00804205,-0.144961247,0.14578138
12.59569783,0.011147863,0.008321296,-0.150797938,0.151438228
12.60570783,0.008657031,0.007512905,-0.14645521,0.146903086
12.61571783,0.003807405,0.010751006,-0.158282374,0.158692754
12.62572683,0.016380609,0.007910333,-0.146604899,0.147729124
12.63573683,0.014964039,0.003448405,-0.136275793,0.137138272
12.64574683,0.015264166,-0.00056771,-0.147201315,0.147991703
12.65575683,0.016081442,-0.009469438,-0.144205787,0.145408363
12.66579683,0.017441121,0.000422466,-0.148845552,0.149864504
12.67580683,0.015176156,0.008734799,-0.142558041,0.14362941
12.68581583,0.019393634,0.001820014,-0.141959286,0.143289443
12.69582583,0.015386555,0.007808911,-0.153186525,0.154155236
12.70583583,0.010627004,0.005214561,-0.144202863,0.144687907
12.71584583,0.009865139,0.006437022,-0.145550061,0.146025945
12.72585483,0.012487359,0.011592219,-0.14270656,0.143720131
12.73586483,0.010028359,0.007383868,-0.141207919,0.141756008
12.74587483,0.011041489,0.009466551,-0.142257494,0.142999038
12.75588483,0.014816908,0.019226317,-0.139861305,0.141952023
12.76589483,0.013893551,0.006969497,-0.152290147,0.15308133
12.77590383,0.023819483,0.062779736,-0.355419495,0.361706622
12.78594483,-0.024455349,0.425571757,-0.198027068,0.470025642
12.79595383,-0.217155247,0.748614196,0.363458247,0.86004739
12.80596383,0.245581687,0.552100497,-0.322126619,0.684756075
12.81598746,0.004583276,-0.000349618,-0.277169716,0.277207829
12.82599746,0.192067439,-0.154937949,0.117945356,0.273508275
12.83600646,0.102519534,-0.300722283,-0.465045433,0.563215235
12.84601646,-0.108404272,-0.435389086,-0.19699328,0.490021933
12.85602646,-0.196334262,-0.4341706,0.307430812,0.567066977
12.86603646,-0.106775174,-0.370865098,-0.218192945,0.443339621